Time[ms]; Pressure [Pa]; Approx altitude [m]; Temperature [degC]; accX [m/s2]; accY [m/s2]; accZ [m/s2]; rotX [rad/s]; rotY [rad/s]; rotZ [rad/s]; magX [uT]; magY [uT]; magZ [uT]; roll [deg]; pitch [deg]; heading [deg]; tempMPU [degC]; delta pressure [Pa]; speed [m/s]; tempPitot [degC]; Satellites []; Date [yyyy-mm-dd]; Time [hh:mm:ss]; Latitude [deg]; Longitude [deg]; Relative X [m]; Relative Y [m]; Altitude [m]; Angle [deg]; Ch0; Ch1; Ch2; Ch3; Ch4; Ch5; Ch6; Ch7; Ch8; Ch9; 
298837; 101324; -0.70; 28.2; -0.546; 0.024; 9.753; 0.022; 0.004; -0.002; 28.832; 10.116; 4.290; -180.0; 3.0; 160.2; 31.7; -47.35; 8.87; 23.1; 12; 2025-05-13; 10:18:45; 51.935535; 4.194976; -126.588585; -24.067318; 7.8; 0.00; 1099.00; 1099.00; 645.00; 1085.00; 1599.00; 1598.00; 600.00; 598.00; 0.00; 0.00; 
298858; 101324; -0.70; 28.2; -0.694; -0.230; 9.666; 0.016; 0.002; -0.007; 27.063; 10.471; 3.604; 180.0; 3.1; 160.2; 31.7; -48.40; 8.97; 23.1; 12; 2025-05-13; 10:18:45; 51.935535; 4.194976; -126.588585; -24.067318; 7.8; 0.00; 1099.00; 1099.00; 642.00; 1085.00; 1599.00; 1598.00; 600.00; 598.00; 0.00; 0.00; 
298957; 101327; -0.96; 28.2; -0.623; 0.038; 9.748; -0.017; 0.000; -0.009; 27.063; 10.471; 3.604; 180.0; 3.1; 160.1; 31.6; -48.40; 8.97; 23.1; 12; 2025-05-13; 10:18:45; 51.935535; 4.194976; -126.588585; -24.067318; 7.8; 0.00; 1099.00; 1099.00; 639.00; 1084.00; 1599.00; 1599.00; 599.00; 600.00; 0.00; 0.00; 
299057; 101328; -1.05; 28.2; -0.646; 0.402; 9.815; -0.004; 0.000; -0.005; 27.063; 10.471; 3.604; -179.9; 3.2; 160.1; 31.6; -47.35; 8.87; 23.1; 12; 2025-05-13; 10:18:45; 51.935535; 4.194976; -126.588585; -24.067318; 7.8; 0.00; 1100.00; 1102.00; 642.00; 1083.00; 1599.00; 1599.00; 599.00; 599.00; 0.00; 0.00; 
299157; 101328; -1.08; 28.2; -0.623; 0.019; 9.834; 0.020; 0.006; -0.006; 27.063; 10.471; 3.604; -179.9; 3.2; 160.0; 31.7; -53.66; 9.44; 23.1; 12; 2025-05-13; 10:18:46; 51.935535; 4.194975; -126.611443; -24.160158; 7.8; 0.00; 1099.00; 1099.00; 643.00; 1079.00; 1599.00; 1599.00; 599.00; 599.00; 0.00; 0.00; 
299257; 101327; -1.02; 28.2; -0.656; 0.096; 9.762; -0.001; 0.000; -0.013; 27.063; 10.471; 3.604; -179.9; 3.2; 160.0; 31.6; -55.76; 9.62; 23.1; 12; 2025-05-13; 10:18:46; 51.935535; 4.194975; -126.611443; -24.160158; 7.8; 0.00; 1099.00; 1099.00; 642.00; 1082.00; 1599.00; 1600.00; 599.00; 599.00; 0.00; 0.00; 
299357; 101328; -1.05; 28.2; -0.623; 0.057; 9.757; 0.074; -0.001; -0.007; 26.886; 10.293; 3.432; -179.8; 3.2; 159.9; 31.7; -48.40; 8.97; 23.1; 12; 2025-05-13; 10:18:46; 51.935535; 4.194975; -126.611443; -24.160158; 7.8; 0.00; 1099.00; 1099.00; 642.00; 1085.00; 1598.00; 1600.00; 600.00; 600.00; 0.00; 0.00; 
299457; 101326; -0.88; 28.2; -0.613; 0.019; 9.863; 0.033; 0.000; 0.000; 26.886; 10.293; 3.432; -179.8; 3.3; 159.9; 31.7; -51.55; 9.25; 23.1; 12; 2025-05-13; 10:18:46; 51.935535; 4.194975; -126.611443; -24.160158; 7.8; 0.00; 1099.00; 1100.00; 643.00; 1085.00; 1598.00; 1599.00; 600.00; 599.00; 0.00; 0.00; 
299557; 101326; -0.91; 28.2; -0.642; -0.215; 9.705; 0.009; 0.001; -0.004; 26.886; 10.293; 3.432; -179.9; 3.3; 159.8; 31.7; -46.29; 8.77; 23.1; 12; 2025-05-13; 10:18:46; 51.935535; 4.194975; -126.611443; -24.160158; 7.8; 0.00; 1100.00; 1102.00; 643.00; 1084.00; 1602.00; 1599.00; 599.00; 599.00; 0.00; 0.00; 
299657; 101329; -1.17; 28.2; -0.747; 0.029; 9.671; -0.005; 0.004; -0.007; 26.886; 10.293; 3.432; -179.9; 3.3; 159.8; 31.7; -55.76; 9.62; 23.1; 12; 2025-05-13; 10:18:46; 51.935535; 4.194975; -126.611443; -24.160158; 7.8; 0.00; 1096.00; 1099.00; 643.00; 1084.00; 1597.00; 1599.00; 599.00; 599.00; 0.00; 0.00; 
299757; 101330; -1.25; 28.2; -0.613; 0.043; 9.690; 0.013; 0.002; -0.003; 26.886; 10.293; 3.432; -179.9; 3.4; 159.8; 31.6; -31.56; 7.24; 23.1; 12; 2025-05-13; 10:18:46; 51.935535; 4.194975; -126.611443; -24.160158; 7.8; 0.00; 1099.00; 1099.00; 643.00; 1094.00; 1599.00; 1600.00; 600.00; 600.00; 0.00; 0.00; 
299857; 101330; -1.23; 28.2; -0.646; -0.139; 9.762; 0.003; 0.002; -0.005; 27.240; 10.648; 2.746; -179.9; 3.4; 159.7; 31.7; -55.76; 9.62; 23.1; 12; 2025-05-13; 10:18:46; 51.935535; 4.194975; -126.611443; -24.160158; 7.8; 0.00; 1099.00; 1103.00; 644.00; 1085.00; 1599.00; 1600.00; 599.00; 600.00; 0.00; 0.00; 
299957; 101332; -1.42; 28.2; -0.608; 0.010; 9.748; 0.003; 0.001; -0.007; 27.240; 10.648; 2.746; -179.9; 3.4; 159.7; 31.7; -48.40; 8.97; 23.1; 12; 2025-05-13; 10:18:46; 51.935535; 4.194975; -126.611443; -24.160158; 7.8; 0.00; 1100.00; 1101.00; 644.00; 1084.00; 1599.00; 1599.00; 599.00; 599.00; 0.00; 0.00; 
300057; 101327; -0.98; 28.2; -0.618; 0.105; 9.786; 0.004; 0.002; 0.002; 27.240; 10.648; 2.746; -179.9; 3.4; 159.6; 31.6; -58.92; 9.89; 23.1; 12; 2025-05-13; 10:18:46; 51.935535; 4.194975; -126.611443; -24.160158; 7.8; 0.00; 1099.00; 1100.00; 644.00; 1086.00; 1599.00; 1599.00; 599.00; 599.00; 0.00; 0.00; 
300157; 101327; -0.96; 28.2; -0.618; -0.239; 9.805; 0.000; 0.002; -0.007; 27.240; 10.648; 2.746; -180.0; 3.4; 159.6; 31.7; -53.66; 9.44; 23.1; 12; 2025-05-13; 10:18:47; 51.935535; 4.194974; -126.680069; -24.160158; 7.8; 0.00; 1099.00; 1099.00; 643.00; 1084.00; 1598.00; 1599.00; 599.00; 599.00; 0.00; 0.00; 
300257; 101327; -1.01; 28.2; -0.680; 0.057; 9.757; 0.007; 0.005; -0.004; 27.240; 10.648; 2.746; -180.0; 3.4; 159.5; 31.7; -53.66; 9.44; 23.1; 12; 2025-05-13; 10:18:47; 51.935535; 4.194974; -126.680069; -24.160158; 7.8; 0.00; 1099.00; 1099.00; 644.00; 1085.00; 1599.00; 1599.00; 600.00; 600.00; 0.00; 0.00; 
300357; 101326; -0.89; 28.2; -0.623; -0.019; 9.743; 0.010; 0.002; -0.001; 27.240; 10.648; 2.746; -180.0; 3.5; 159.5; 31.7; -47.35; 8.87; 23.1; 12; 2025-05-13; 10:18:47; 51.935535; 4.194974; -126.680069; -24.160158; 7.8; 0.00; 1099.00; 1102.00; 643.00; 1083.00; 1598.00; 1599.00; 599.00; 599.00; 0.00; 0.00; 
300457; 101330; -1.21; 28.2; -0.584; 0.125; 9.844; 0.006; 0.003; -0.010; 27.240; 10.648; 2.746; -179.9; 3.5; 159.5; 31.7; -47.35; 8.87; 23.1; 12; 2025-05-13; 10:18:47; 51.935535; 4.194974; -126.680069; -24.160158; 7.8; 0.00; 1100.00; 1100.00; 643.00; 1085.00; 1600.00; 1599.00; 599.00; 599.00; 0.00; 0.00; 
300557; 101330; -1.21; 28.2; -0.651; 0.000; 9.757; 0.001; 0.002; -0.007; 27.240; 10.648; 2.746; -179.9; 3.5; 159.4; 31.7; -47.35; 8.87; 23.1; 12; 2025-05-13; 10:18:47; 51.935535; 4.194974; -126.680069; -24.160158; 7.8; 0.00; 1099.00; 1099.00; 643.00; 1085.00; 1599.00; 1599.00; 599.00; 599.00; 0.00; 0.00; 
300657; 101330; -1.27; 28.2; -0.632; 0.062; 9.714; 0.002; 0.000; -0.002; 27.240; 10.648; 2.746; -179.9; 3.5; 159.4; 31.7; -55.76; 9.62; 23.1; 12; 2025-05-13; 10:18:47; 51.935535; 4.194974; -126.680069; -24.160158; 7.8; 0.00; 1099.00; 1099.00; 642.00; 1084.00; 1602.00; 1600.00; 599.00; 599.00; 0.00; 0.00; 
300757; 101327; -0.95; 28.2; -0.656; 0.048; 9.681; 0.009; 0.000; -0.004; 27.240; 10.648; 2.746; -179.9; 3.5; 159.4; 31.7; -55.76; 9.62; 23.1; 12; 2025-05-13; 10:18:47; 51.935535; 4.194974; -126.680069; -24.160158; 7.8; 0.00; 1099.00; 1099.00; 627.00; 1087.00; 1600.00; 1599.00; 599.00; 600.00; 0.00; 0.00; 
300857; 101327; -0.98; 28.2; -0.627; 0.081; 9.719; 0.014; 0.004; -0.007; 27.063; 10.471; 4.290; -179.9; 3.5; 159.3; 31.7; -53.66; 9.44; 23.1; 12; 2025-05-13; 10:18:47; 51.935535; 4.194974; -126.680069; -24.160158; 7.8; 0.00; 1100.00; 1100.00; 643.00; 1086.00; 1601.00; 1599.00; 599.00; 599.00; 0.00; 0.00; 
300957; 101328; -1.06; 28.2; -0.560; 0.038; 9.733; 0.019; -0.001; -0.006; 27.063; 10.471; 4.290; -179.9; 3.5; 159.3; 31.7; -46.29; 8.77; 23.1; 12; 2025-05-13; 10:18:47; 51.935535; 4.194974; -126.680069; -24.160158; 7.8; 0.00; 1099.00; 1100.00; 640.00; 1085.00; 1599.00; 1599.00; 599.00; 599.00; 0.00; 0.00; 
301057; 101327; -0.97; 28.2; -0.627; -0.010; 9.863; 0.022; 0.003; -0.004; 27.063; 10.471; 4.290; -179.9; 3.5; 159.3; 31.7; -47.35; 8.87; 23.1; 12; 2025-05-13; 10:18:47; 51.935535; 4.194974; -126.680069; -24.160158; 7.8; 0.00; 1099.00; 1099.00; 642.00; 1085.00; 1600.00; 1599.00; 599.00; 599.00; 0.00; 0.00; 
301157; 101327; -1.02; 28.2; -0.623; -0.024; 9.719; 0.006; 0.003; -0.011; 27.063; 10.471; 4.290; -179.9; 3.5; 159.3; 31.7; -46.29; 8.77; 23.1; 12; 2025-05-13; 10:18:48; 51.935535; 4.194974; -126.714386; -24.141567; 7.8; 0.00; 1099.00; 1100.00; 644.00; 1083.00; 1597.00; 1599.00; 600.00; 600.00; 0.00; 0.00; 
301257; 101328; -1.08; 28.2; -0.608; 0.072; 9.781; 0.012; 0.004; -0.003; 27.063; 10.471; 4.290; -179.9; 3.5; 159.3; 31.7; -46.29; 8.77; 23.1; 12; 2025-05-13; 10:18:48; 51.935535; 4.194974; -126.714386; -24.141567; 7.9; 0.00; 1099.00; 1099.00; 642.00; 1085.00; 1599.00; 1599.00; 599.00; 599.00; 0.00; 0.00; 
301357; 101328; -1.09; 28.2; -0.546; 0.043; 9.805; 0.013; 0.004; -0.005; 27.063; 10.471; 4.290; -179.9; 3.5; 159.3; 31.7; -46.29; 8.77; 23.1; 12; 2025-05-13; 10:18:48; 51.935535; 4.194974; -126.714386; -24.141567; 7.9; 0.00; 1100.00; 1102.00; 644.00; 1085.00; 1597.00; 1599.00; 599.00; 599.00; 0.00; 0.00; 
301457; 101327; -0.98; 28.2; -0.536; -0.038; 9.786; -0.006; 0.005; -0.007; 27.063; 10.471; 4.290; -179.9; 3.5; 159.3; 31.7; -46.29; 8.77; 23.1; 12; 2025-05-13; 10:18:48; 51.935535; 4.194974; -126.714386; -24.141567; 7.9; 0.00; 1099.00; 1099.00; 643.00; 1085.00; 1599.00; 1599.00; 599.00; 599.00; 0.00; 0.00; 
301557; 101329; -1.15; 28.2; -0.642; 0.134; 9.676; 0.004; 0.001; -0.001; 27.063; 10.471; 4.290; -179.8; 3.5; 159.2; 31.6; -51.55; 9.25; 23.1; 12; 2025-05-13; 10:18:48; 51.935535; 4.194974; -126.714386; -24.141567; 7.9; 0.00; 1099.00; 1100.00; 642.00; 1085.00; 1598.00; 1600.00; 599.00; 599.00; 0.00; 0.00; 
301657; 101328; -1.10; 28.2; -0.637; -0.096; 9.733; 0.015; 0.000; -0.003; 27.063; 10.471; 4.290; -179.9; 3.5; 159.2; 31.7; -55.76; 9.62; 23.1; 12; 2025-05-13; 10:18:48; 51.935535; 4.194974; -126.714386; -24.141567; 7.9; 0.00; 1099.00; 1099.00; 644.00; 1084.00; 1598.00; 1595.00; 599.00; 600.00; 0.00; 0.00; 
301757; 101327; -0.95; 28.2; -0.608; -0.010; 9.666; 0.009; 0.003; -0.005; 27.063; 10.471; 4.290; -179.9; 3.5; 159.2; 31.7; -43.14; 8.46; 23.1; 12; 2025-05-13; 10:18:48; 51.935535; 4.194974; -126.714386; -24.141567; 7.9; 0.00; 1099.00; 1099.00; 643.00; 1084.00; 1598.00; 1599.00; 599.00; 599.00; 0.00; 0.00; 
301857; 101330; -1.26; 28.2; -0.656; 0.000; 9.642; -0.009; 0.000; -0.010; 27.063; 10.471; 4.290; -179.9; 3.5; 159.2; 31.7; -44.19; 8.57; 23.1; 12; 2025-05-13; 10:18:48; 51.935535; 4.194974; -126.714386; -24.141567; 7.9; 0.00; 1099.00; 1102.00; 642.00; 1085.00; 1597.00; 1599.00; 599.00; 599.00; 0.00; 0.00; 
301957; 101330; -1.22; 28.2; -0.632; 0.120; 9.729; 0.021; 0.001; -0.004; 27.063; 10.471; 4.290; -179.9; 3.6; 159.2; 31.7; -46.29; 8.77; 23.1; 12; 2025-05-13; 10:18:48; 51.935535; 4.194974; -126.714386; -24.141567; 7.9; 0.00; 1099.00; 1101.00; 644.00; 1086.00; 1600.00; 1599.00; 599.00; 599.00; 0.00; 0.00; 
302057; 101329; -1.14; 28.2; -0.603; 0.000; 9.776; 0.027; 0.005; -0.006; 27.063; 10.471; 4.290; -179.9; 3.6; 159.2; 31.7; -48.40; 8.97; 23.1; 12; 2025-05-13; 10:18:48; 51.935535; 4.194974; -126.714386; -24.141567; 7.9; 0.00; 1099.00; 1103.00; 642.00; 1084.00; 1600.00; 1600.00; 600.00; 600.00; 0.00; 0.00; 
302157; 101328; -1.08; 28.2; -0.646; -0.014; 9.743; -0.002; 0.003; 0.001; 27.063; 10.471; 4.290; -179.9; 3.6; 159.2; 31.7; -47.35; 8.87; 23.1; 12; 2025-05-13; 10:18:49; 51.935535; 4.194973; -126.771561; -24.197227; 7.9; 0.00; 1099.00; 1102.00; 644.00; 1085.00; 1598.00; 1599.00; 599.00; 600.00; 0.00; 0.00; 
302257; 101329; -1.12; 28.2; -0.632; 0.125; 9.690; -0.017; 0.002; -0.003; 28.478; 9.406; 1.888; -179.8; 3.6; 159.3; 31.7; -46.29; 8.77; 23.1; 12; 2025-05-13; 10:18:49; 51.935535; 4.194973; -126.771561; -24.197227; 7.8; 0.00; 1100.00; 1102.00; 644.00; 1085.00; 1600.00; 1599.00; 599.00; 599.00; 0.00; 0.00; 
302357; 101328; -1.05; 28.2; -0.642; 0.014; 9.844; 0.022; 0.005; -0.010; 28.478; 9.406; 1.888; -179.8; 3.6; 159.4; 31.7; -46.29; 8.77; 23.1; 12; 2025-05-13; 10:18:49; 51.935535; 4.194973; -126.771561; -24.197227; 7.8; 0.00; 1118.00; 1100.00; 643.00; 1083.00; 1599.00; 1599.00; 599.00; 599.00; 0.00; 0.00; 
302457; 101327; -1.00; 28.2; -0.579; -0.134; 9.839; 0.005; 0.004; -0.012; 28.478; 9.406; 1.888; -179.9; 3.6; 159.5; 31.7; -47.35; 8.87; 23.1; 12; 2025-05-13; 10:18:49; 51.935535; 4.194973; -126.771561; -24.197227; 7.8; 0.00; 1078.00; 1099.00; 644.00; 1085.00; 1599.00; 1600.00; 599.00; 599.00; 0.00; 0.00; 
302557; 101327; -0.98; 28.2; -0.551; 0.115; 9.695; 0.003; 0.002; -0.003; 28.478; 9.406; 1.888; -179.9; 3.6; 159.7; 31.7; -44.19; 8.57; 23.1; 12; 2025-05-13; 10:18:49; 51.935535; 4.194973; -126.771561; -24.197227; 7.8; 0.00; 1099.00; 1099.00; 642.00; 1085.00; 1600.00; 1600.00; 600.00; 600.00; 0.00; 0.00; 
302657; 101327; -0.99; 28.2; -0.603; -0.062; 9.729; 0.034; 0.003; -0.002; 28.478; 9.406; 1.888; -179.9; 3.6; 159.8; 31.7; -53.66; 9.44; 23.1; 12; 2025-05-13; 10:18:49; 51.935535; 4.194973; -126.771561; -24.197227; 7.8; 0.00; 1099.00; 1099.00; 642.00; 1085.00; 1597.00; 1599.00; 599.00; 600.00; 0.00; 0.00; 
302757; 101326; -0.94; 28.2; -0.608; -0.129; 9.772; 0.017; 0.006; -0.012; 28.124; 8.341; 2.574; -179.9; 3.6; 159.9; 31.7; -55.76; 9.62; 23.1; 12; 2025-05-13; 10:18:49; 51.935535; 4.194973; -126.771561; -24.197227; 7.8; 0.00; 1100.00; 1099.00; 643.00; 1082.00; 1611.00; 1599.00; 599.00; 599.00; 0.00; 0.00; 
302857; 101328; -1.05; 28.2; -0.632; 0.120; 9.791; -0.010; 0.003; -0.006; 28.124; 8.341; 2.574; -179.9; 3.6; 160.1; 31.7; -55.76; 9.62; 23.1; 12; 2025-05-13; 10:18:49; 51.935535; 4.194973; -126.771561; -24.197227; 7.8; 0.00; 1099.00; 1102.00; 644.00; 1084.00; 1598.00; 1599.00; 599.00; 599.00; 0.00; 0.00; 
302957; 101326; -0.87; 28.2; -0.627; -0.029; 9.729; 0.013; 0.006; 0.002; 28.124; 8.341; 2.574; -179.9; 3.6; 160.3; 31.7; -55.76; 9.62; 23.1; 12; 2025-05-13; 10:18:49; 51.935535; 4.194973; -126.771561; -24.197227; 7.8; 0.00; 1099.00; 1101.00; 642.00; 1085.00; 1600.00; 1600.00; 600.00; 600.00; 0.00; 0.00; 
303057; 101326; -0.91; 28.2; -0.627; 0.014; 9.729; 0.005; 0.004; -0.003; 28.124; 8.341; 2.574; -179.9; 3.6; 160.5; 31.6; -46.29; 8.77; 23.1; 12; 2025-05-13; 10:18:49; 51.935535; 4.194973; -126.771561; -24.197227; 7.8; 0.00; 1099.00; 1099.00; 643.00; 1083.00; 1599.00; 1599.00; 599.00; 599.00; 0.00; 0.00; 
303157; 101328; -1.04; 28.3; -0.623; 0.072; 9.614; 0.001; 0.006; -0.010; 28.124; 8.341; 2.574; -179.9; 3.6; 160.6; 31.7; -47.35; 8.87; 23.1; 12; 2025-05-13; 10:18:50; 51.935535; 4.194973; -126.760170; -24.289955; 7.8; 0.00; 1100.00; 1100.00; 641.00; 1081.00; 1605.00; 1599.00; 599.00; 599.00; 0.00; 0.00; 
303257; 101329; -1.17; 28.3; -0.632; 0.038; 9.647; 0.004; -0.001; -0.003; 28.124; 8.341; 2.574; -179.9; 3.6; 160.8; 31.7; -46.29; 8.77; 23.1; 12; 2025-05-13; 10:18:50; 51.935535; 4.194973; -126.760170; -24.289955; 7.8; 0.00; 1099.00; 1100.00; 645.00; 1085.00; 1599.00; 1599.00; 599.00; 599.00; 0.00; 0.00; 
303357; 101329; -1.14; 28.3; -0.627; 0.034; 9.891; -0.007; 0.003; -0.001; 28.124; 8.341; 2.574; -179.9; 3.6; 160.9; 31.7; -46.29; 8.77; 23.1; 12; 2025-05-13; 10:18:50; 51.935535; 4.194973; -126.760170; -24.289955; 7.8; 0.00; 1099.00; 1099.00; 643.00; 1084.00; 1599.00; 1600.00; 600.00; 599.00; 0.00; 0.00; 
303457; 101329; -1.12; 28.3; -0.666; 0.115; 9.733; 0.014; 0.004; -0.003; 28.124; 8.341; 2.574; -179.9; 3.6; 161.0; 31.7; -46.29; 8.77; 23.1; 12; 2025-05-13; 10:18:50; 51.935535; 4.194973; -126.760170; -24.289955; 7.8; 0.00; 1099.00; 1101.00; 643.00; 1086.00; 1599.00; 1599.00; 599.00; 599.00; 0.00; 0.00; 
303557; 101331; -1.30; 28.3; -0.642; 0.072; 9.748; 0.007; 0.004; -0.002; 28.124; 8.341; 2.574; -179.9; 3.6; 161.2; 31.7; -51.55; 9.25; 23.1; 12; 2025-05-13; 10:18:50; 51.935535; 4.194973; -126.760170; -24.289955; 7.8; 0.00; 1099.00; 1099.00; 642.00; 1086.00; 1599.00; 1599.00; 599.00; 599.00; 0.00; 0.00; 
303657; 101330; -1.22; 28.3; -0.555; 0.029; 9.719; -0.007; 0.003; -0.006; 28.124; 8.341; 2.574; -179.9; 3.6; 161.3; 31.7; -44.19; 8.57; 23.1; 12; 2025-05-13; 10:18:50; 51.935535; 4.194973; -126.760170; -24.289955; 7.8; 0.00; 1100.00; 1101.00; 643.00; 1085.00; 1599.00; 1599.00; 599.00; 599.00; 0.00; 0.00; 
303757; 101331; -1.32; 28.3; -0.728; 0.268; 9.695; 0.017; -0.001; -0.003; 28.124; 8.341; 2.574; -179.8; 3.6; 161.4; 31.7; -51.55; 9.25; 23.1; 12; 2025-05-13; 10:18:50; 51.935535; 4.194973; -126.760170; -24.289955; 7.8; 0.00; 1099.00; 1101.00; 644.00; 1083.00; 1599.00; 1599.00; 599.00; 599.00; 0.00; 0.00; 
303857; 101330; -1.24; 28.3; -0.661; 0.005; 9.642; 0.015; 0.004; -0.007; 28.124; 8.341; 2.574; -179.8; 3.6; 161.5; 31.7; -55.76; 9.62; 23.1; 12; 2025-05-13; 10:18:50; 51.935535; 4.194973; -126.760170; -24.289955; 7.8; 0.00; 1099.00; 1100.00; 645.00; 1085.00; 1598.00; 1600.00; 599.00; 600.00; 0.00; 0.00; 
303957; 101329; -1.17; 28.3; -0.646; 0.139; 9.705; -0.007; 0.002; -0.007; 28.124; 8.341; 2.574; -179.8; 3.6; 161.6; 31.7; -53.66; 9.44; 23.1; 12; 2025-05-13; 10:18:50; 51.935535; 4.194973; -126.760170; -24.289955; 7.8; 0.00; 1099.00; 1099.00; 643.00; 1084.00; 1599.00; 1599.00; 599.00; 600.00; 0.00; 0.00; 
304057; 101330; -1.22; 28.3; -0.656; 0.215; 9.666; 0.001; 0.003; -0.004; 28.124; 8.341; 2.574; -179.7; 3.7; 161.7; 31.7; -47.35; 8.87; 23.1; 12; 2025-05-13; 10:18:50; 51.935535; 4.194973; -126.760170; -24.289955; 7.8; 0.00; 1100.00; 1099.00; 650.00; 1082.00; 1599.00; 1599.00; 599.00; 599.00; 0.00; 0.00; 
304157; 101328; -1.10; 28.3; -0.675; 0.230; 9.757; 0.014; 0.003; -0.006; 28.124; 8.341; 2.574; -179.7; 3.7; 161.8; 31.7; -48.40; 8.97; 23.1; 12; 2025-05-13; 10:18:51; 51.935535; 4.194973; -126.771561; -24.327137; 7.8; 0.00; 1099.00; 1099.00; 644.00; 1086.00; 1599.00; 1599.00; 599.00; 599.00; 0.00; 0.00; 
304257; 101330; -1.21; 28.3; -0.747; 0.072; 9.623; 0.006; 0.006; -0.007; 28.124; 8.341; 2.574; -179.7; 3.7; 161.9; 31.7; -55.76; 9.62; 23.1; 12; 2025-05-13; 10:18:51; 51.935535; 4.194973; -126.771561; -24.327137; 7.8; 0.00; 1099.00; 1099.00; 643.00; 1086.00; 1601.00; 1599.00; 600.00; 599.00; 0.00; 0.00; 
304357; 101328; -1.06; 28.3; -0.651; 0.096; 9.733; -0.010; 0.007; 0.000; 28.124; 8.341; 2.574; -179.7; 3.7; 162.0; 31.7; -55.76; 9.62; 23.1; 12; 2025-05-13; 10:18:51; 51.935535; 4.194973; -126.771561; -24.327137; 7.8; 0.00; 1100.00; 1099.00; 642.00; 1086.00; 1599.00; 1599.00; 600.00; 600.00; 0.00; 0.00; 
304457; 101329; -1.12; 28.3; -0.632; 0.192; 9.666; 0.022; 0.005; -0.002; 28.124; 8.341; 2.574; -179.6; 3.7; 162.1; 31.7; -56.81; 9.71; 23.1; 12; 2025-05-13; 10:18:51; 51.935535; 4.194973; -126.771561; -24.327137; 7.8; 0.00; 1100.00; 1099.00; 644.00; 1087.00; 1599.00; 1599.00; 599.00; 599.00; 0.00; 0.00; 
304557; 101330; -1.22; 28.3; -0.742; 0.062; 9.657; 0.019; 0.004; -0.009; 28.124; 8.341; 2.574; -179.6; 3.8; 162.1; 31.7; -56.81; 9.71; 23.1; 12; 2025-05-13; 10:18:51; 51.935535; 4.194973; -126.771561; -24.327137; 7.8; 0.00; 1100.00; 1100.00; 643.00; 1085.00; 1598.00; 1599.00; 599.00; 599.00; 0.00; 0.00; 
304657; 101332; -1.38; 28.3; -0.661; 0.177; 9.590; 0.015; 0.000; 0.002; 25.825; 7.454; 4.805; -179.6; 3.8; 162.2; 31.7; -44.19; 8.57; 23.1; 12; 2025-05-13; 10:18:51; 51.935535; 4.194973; -126.771561; -24.327137; 7.8; 0.00; 1099.00; 1100.00; 646.00; 1084.00; 1599.00; 1599.00; 599.00; 599.00; 0.00; 0.00; 
304757; 101330; -1.20; 28.3; -0.670; 0.057; 9.709; 0.018; 0.002; 0.000; 25.825; 7.454; 4.805; -179.6; 3.8; 162.3; 31.7; -44.19; 8.57; 23.1; 12; 2025-05-13; 10:18:51; 51.935535; 4.194973; -126.771561; -24.327137; 7.8; 0.00; 1099.00; 1100.00; 642.00; 1085.00; 1597.00; 1600.00; 600.00; 599.00; 0.00; 0.00; 
304857; 101330; -1.24; 28.3; -0.675; -0.077; 9.709; 0.014; 0.003; -0.007; 25.825; 7.454; 4.805; -179.7; 3.8; 162.4; 31.7; -41.03; 8.26; 23.1; 12; 2025-05-13; 10:18:51; 51.935535; 4.194973; -126.771561; -24.327137; 7.8; 0.00; 1099.00; 1100.00; 646.00; 1084.00; 1598.00; 1599.00; 599.00; 600.00; 0.00; 0.00; 
304957; 101329; -1.12; 28.3; -0.618; -0.005; 9.647; 0.015; 0.003; -0.011; 25.825; 7.454; 4.805; -179.7; 3.8; 162.5; 31.7; -39.98; 8.15; 23.1; 12; 2025-05-13; 10:18:51; 51.935535; 4.194973; -126.771561; -24.327137; 7.8; 0.00; 1100.00; 1101.00; 645.00; 1085.00; 1599.00; 1599.00; 599.00; 599.00; 0.00; 0.00; 
305057; 101327; -0.95; 28.3; -0.651; 0.110; 9.681; 0.021; 0.007; -0.003; 25.825; 7.454; 4.805; -179.7; 3.8; 162.6; 31.7; -37.88; 7.93; 23.1; 12; 2025-05-13; 10:18:51; 51.935535; 4.194973; -126.771561; -24.327137; 7.8; 0.00; 1099.00; 1101.00; 643.00; 1087.00; 1600.00; 1600.00; 599.00; 600.00; 0.00; 0.00; 
305157; 101331; -1.29; 28.3; -0.651; 0.057; 9.724; 0.011; 0.002; -0.007; 25.825; 7.454; 4.805; -179.7; 3.8; 162.6; 31.7; -47.35; 8.87; 23.1; 12; 2025-05-13; 10:18:52; 51.935535; 4.194972; -126.863113; -24.345615; 7.8; 0.00; 1099.00; 1099.00; 646.00; 1084.00; 1597.00; 1600.00; 600.00; 600.00; 0.00; 0.00; 
305257; 101329; -1.14; 28.3; -0.584; 0.101; 9.729; 0.013; 0.003; -0.004; 25.825; 7.454; 4.805; -179.7; 3.7; 162.7; 31.7; -41.03; 8.26; 23.1; 12; 2025-05-13; 10:18:52; 51.935535; 4.194972; -126.863113; -24.345615; 7.7; 0.00; 1099.00; 1101.00; 643.00; 1086.00; 1599.00; 1599.00; 600.00; 600.00; 0.00; 0.00; 
305357; 101325; -0.83; 28.3; -0.747; 0.077; 9.685; 0.022; 0.001; -0.002; 25.825; 7.454; 4.805; -179.7; 3.8; 162.8; 31.7; -48.40; 8.97; 23.1; 12; 2025-05-13; 10:18:52; 51.935535; 4.194972; -126.863113; -24.345615; 7.7; 0.00; 1099.00; 1100.00; 644.00; 1083.00; 1597.00; 1591.00; 599.00; 599.00; 0.00; 0.00; 
305457; 101327; -0.96; 28.3; -0.627; -0.062; 9.748; 0.025; 0.004; -0.012; 25.825; 7.454; 4.805; -179.7; 3.8; 162.8; 31.7; -25.25; 6.48; 23.1; 12; 2025-05-13; 10:18:52; 51.935535; 4.194972; -126.863113; -24.345615; 7.7; 0.00; 1100.00; 1100.00; 644.00; 1083.00; 1597.00; 1599.00; 599.00; 599.00; 0.00; 0.00; 
305557; 101328; -1.09; 28.3; -0.646; 0.072; 9.791; 0.015; 0.003; -0.017; 25.825; 7.454; 4.805; -179.7; 3.8; 162.9; 31.7; -41.03; 8.26; 23.1; 12; 2025-05-13; 10:18:52; 51.935535; 4.194972; -126.863113; -24.345615; 7.7; 0.00; 1099.00; 1099.00; 643.00; 1086.00; 1598.00; 1599.00; 599.00; 599.00; 0.00; 0.00; 
305657; 101329; -1.17; 28.3; -0.733; 0.249; 9.791; 0.018; 0.002; -0.001; 27.417; 9.051; 2.917; -179.7; 3.8; 162.9; 31.7; -36.82; 7.82; 23.1; 12; 2025-05-13; 10:18:52; 51.935535; 4.194972; -126.863113; -24.345615; 7.7; 0.00; 1099.00; 1100.00; 635.00; 1085.00; 1599.00; 1600.00; 600.00; 599.00; 0.00; 0.00; 
305757; 101328; -1.09; 28.3; -0.603; -0.081; 9.738; 0.003; 0.002; 0.009; 27.417; 9.051; 2.917; -179.7; 3.8; 162.8; 31.7; -37.88; 7.93; 23.1; 12; 2025-05-13; 10:18:52; 51.935535; 4.194972; -126.863113; -24.345615; 7.7; 0.00; 1099.00; 1101.00; 646.00; 1085.00; 1599.00; 1599.00; 599.00; 600.00; 0.00; 0.00; 
305857; 101330; -1.24; 28.3; -0.646; -0.077; 9.714; 0.002; 0.001; -0.003; 27.417; 9.051; 2.917; -179.7; 3.8; 162.8; 31.7; -46.29; 8.77; 23.1; 12; 2025-05-13; 10:18:52; 51.935535; 4.194972; -126.863113; -24.345615; 7.7; 0.00; 1100.00; 1100.00; 641.00; 1084.00; 1602.00; 1599.00; 599.00; 600.00; 0.00; 0.00; 
305957; 101330; -1.20; 28.3; -0.694; 0.101; 9.676; 0.002; 0.007; -0.010; 27.417; 9.051; 2.917; -179.7; 3.8; 162.7; 31.7; -41.03; 8.26; 23.1; 12; 2025-05-13; 10:18:52; 51.935535; 4.194972; -126.863113; -24.345615; 7.7; 0.00; 1099.00; 1100.00; 644.00; 1085.00; 1599.00; 1599.00; 599.00; 599.00; 0.00; 0.00; 
306057; 101333; -1.47; 28.3; -0.637; 0.168; 9.872; 0.028; 0.002; -0.011; 27.417; 9.051; 2.917; -179.7; 3.8; 162.7; 31.7; -44.19; 8.57; 23.1; 12; 2025-05-13; 10:18:52; 51.935535; 4.194972; -126.863113; -24.345615; 7.7; 0.00; 1099.00; 1100.00; 643.00; 1086.00; 1600.00; 1599.00; 599.00; 599.00; 0.00; 0.00; 
306157; 101331; -1.31; 28.3; -0.627; 0.168; 9.705; 0.016; 0.002; -0.005; 26.532; 10.648; 2.746; -179.6; 3.8; 162.4; 31.7; -37.88; 7.93; 23.1; 12; 2025-05-13; 10:18:53; 51.935535; 4.194972; -126.863113; -24.289955; 7.7; 0.00; 1099.00; 1099.00; 643.00; 1084.00; 1597.00; 1600.00; 600.00; 600.00; 0.00; 0.00; 
306257; 101331; -1.35; 28.3; -0.603; -0.105; 9.834; -0.013; 0.002; -0.006; 26.532; 10.648; 2.746; -179.7; 3.8; 162.2; 31.6; -37.88; 7.93; 23.1; 12; 2025-05-13; 10:18:53; 51.935535; 4.194972; -126.863113; -24.289955; 7.7; 0.00; 1099.00; 1102.00; 641.00; 1087.00; 1598.00; 1599.00; 599.00; 599.00; 0.00; 0.00; 
306357; 101328; -1.09; 28.3; -0.661; 0.273; 9.705; 0.017; 0.001; -0.013; 26.532; 10.648; 2.746; -179.6; 3.8; 162.0; 31.7; -46.29; 8.77; 23.1; 12; 2025-05-13; 10:18:53; 51.935535; 4.194972; -126.863113; -24.289955; 7.7; 0.00; 1100.00; 1101.00; 643.00; 1082.00; 1600.00; 1599.00; 599.00; 599.00; 0.00; 0.00; 
306457; 101328; -1.11; 28.3; -0.560; 0.019; 9.805; 0.014; 0.002; -0.004; 26.532; 10.648; 2.746; -179.6; 3.8; 161.9; 31.7; -39.98; 8.15; 23.1; 12; 2025-05-13; 10:18:53; 51.935535; 4.194972; -126.863113; -24.289955; 7.7; 0.00; 1099.00; 1101.00; 641.00; 1084.00; 1602.00; 1599.00; 599.00; 599.00; 0.00; 0.00; 
306557; 101328; -1.09; 28.3; -0.680; -0.024; 9.781; -0.002; 0.004; -0.001; 26.532; 10.648; 2.746; -179.6; 3.8; 161.7; 31.6; -41.03; 8.26; 23.1; 12; 2025-05-13; 10:18:53; 51.935535; 4.194972; -126.863113; -24.289955; 7.7; 0.00; 1099.00; 1101.00; 643.00; 1085.00; 1602.00; 1600.00; 600.00; 600.00; 0.00; 0.00; 
306657; 101329; -1.15; 28.3; -0.637; 0.067; 9.638; 0.028; 0.006; -0.005; 26.532; 10.648; 2.746; -179.6; 3.8; 161.5; 31.7; -41.03; 8.26; 23.1; 12; 2025-05-13; 10:18:53; 51.935535; 4.194972; -126.863113; -24.289955; 7.7; 0.00; 1099.00; 1101.00; 642.00; 1087.00; 1599.00; 1599.00; 600.00; 600.00; 0.00; 0.00; 
306757; 101330; -1.24; 28.3; -0.656; 0.034; 9.791; 0.025; 0.002; -0.010; 26.532; 10.648; 2.746; -179.6; 3.8; 161.3; 31.7; -39.98; 8.15; 23.1; 12; 2025-05-13; 10:18:53; 51.935535; 4.194972; -126.863113; -24.289955; 7.7; 0.00; 1099.00; 1100.00; 611.00; 1084.00; 1601.00; 1599.00; 599.00; 599.00; 0.00; 0.00; 
306857; 101328; -1.09; 28.3; -0.642; 0.091; 9.705; 0.005; 0.006; -0.002; 26.532; 10.648; 2.746; -179.6; 3.8; 161.2; 31.7; -43.14; 8.46; 23.1; 12; 2025-05-13; 10:18:53; 51.935535; 4.194972; -126.863113; -24.289955; 7.7; 0.00; 1100.00; 1100.00; 643.00; 1084.00; 1598.00; 1599.00; 599.00; 599.00; 0.00; 0.00; 
306957; 101329; -1.12; 28.3; -0.603; 0.019; 9.767; 0.005; 0.006; -0.002; 26.532; 10.648; 2.746; -179.6; 3.8; 161.0; 31.7; -36.82; 7.82; 23.1; 12; 2025-05-13; 10:18:53; 51.935535; 4.194972; -126.863113; -24.289955; 7.7; 0.00; 1099.00; 1099.00; 642.00; 1086.00; 1599.00; 1599.00; 599.00; 599.00; 0.00; 0.00; 
307057; 101329; -1.13; 28.3; -0.589; 0.067; 9.714; 0.027; 0.001; -0.010; 26.532; 10.648; 2.746; -179.6; 3.8; 160.9; 31.7; -43.14; 8.46; 23.1; 12; 2025-05-13; 10:18:53; 51.935535; 4.194972; -126.863113; -24.289955; 7.7; 0.00; 1099.00; 1100.00; 641.00; 1085.00; 1600.00; 1600.00; 600.00; 600.00; 0.00; 0.00; 
307157; 101329; -1.17; 28.3; -0.632; -0.072; 9.786; 0.003; 0.003; -0.013; 26.532; 10.648; 2.746; -179.6; 3.8; 160.8; 31.7; -39.98; 8.15; 23.1; 12; 2025-05-13; 10:18:54; 51.935535; 4.194972; -126.863113; -24.271477; 7.7; 0.00; 1099.00; 1101.00; 643.00; 1086.00; 1601.00; 1599.00; 600.00; 599.00; 0.00; 0.00; 
307257; 101329; -1.18; 28.2; -0.623; 0.086; 9.753; 0.005; 0.002; 0.002; 26.532; 10.648; 2.746; -179.6; 3.8; 160.6; 31.7; -39.98; 8.15; 23.1; 12; 2025-05-13; 10:18:54; 51.935535; 4.194972; -126.863113; -24.271477; 7.8; 0.00; 1100.00; 1102.00; 614.00; 1067.00; 1600.00; 1599.00; 599.00; 599.00; 0.00; 0.00; 
307357; 101329; -1.16; 28.3; -0.637; 0.072; 9.844; 0.002; 0.004; -0.001; 26.532; 10.648; 2.746; -179.6; 3.8; 160.5; 31.7; -41.03; 8.26; 23.1; 12; 2025-05-13; 10:18:54; 51.935535; 4.194972; -126.863113; -24.271477; 7.8; 0.00; 1099.00; 1099.00; 640.00; 1085.00; 1600.00; 1599.00; 599.00; 599.00; 0.00; 0.00; 
307457; 101328; -1.09; 28.3; -0.675; -0.005; 9.676; 0.019; 0.005; -0.009; 26.532; 10.648; 2.746; -179.6; 3.8; 160.4; 31.7; -43.14; 8.46; 23.1; 12; 2025-05-13; 10:18:54; 51.935535; 4.194972; -126.863113; -24.271477; 7.8; 0.00; 1099.00; 1100.00; 642.00; 1084.00; 1599.00; 1600.00; 600.00; 599.00; 0.00; 0.00; 
307557; 101327; -0.96; 28.3; -0.627; 0.062; 9.690; 0.001; 0.002; -0.001; 25.648; 8.696; 3.604; -179.6; 3.8; 160.5; 31.7; -41.03; 8.26; 23.1; 12; 2025-05-13; 10:18:54; 51.935535; 4.194972; -126.863113; -24.271477; 7.8; 0.00; 1099.00; 1099.00; 637.00; 1086.00; 1600.00; 1599.00; 600.00; 600.00; 0.00; 0.00; 
307657; 101327; -0.99; 28.3; -0.613; 0.000; 9.599; 0.010; 0.002; 0.002; 25.648; 8.696; 3.604; -179.7; 3.8; 160.5; 31.7; -44.19; 8.57; 23.1; 12; 2025-05-13; 10:18:54; 51.935535; 4.194972; -126.863113; -24.271477; 7.8; 0.00; 1099.00; 1099.00; 637.00; 1083.00; 1598.00; 1599.00; 599.00; 599.00; 0.00; 0.00; 
307757; 101327; -0.98; 28.3; -0.632; 0.053; 9.676; 0.029; 0.002; -0.005; 25.648; 8.696; 3.604; -179.7; 3.8; 160.6; 31.7; -53.66; 9.44; 23.1; 12; 2025-05-13; 10:18:54; 51.935535; 4.194972; -126.863113; -24.271477; 7.8; 0.00; 1100.00; 1100.00; 636.00; 1084.00; 1600.00; 1599.00; 599.00; 599.00; 0.00; 0.00; 
307857; 101327; -0.98; 28.3; -0.646; -0.101; 9.676; 0.030; 0.004; -0.016; 25.648; 8.696; 3.604; -179.7; 3.8; 160.6; 31.6; -44.19; 8.57; 23.1; 12; 2025-05-13; 10:18:54; 51.935535; 4.194972; -126.863113; -24.271477; 7.8; 0.00; 1099.00; 1101.00; 639.00; 1087.00; 1598.00; 1601.00; 599.00; 599.00; 0.00; 0.00; 
307957; 101324; -0.74; 28.3; -0.608; 0.182; 9.705; 0.033; 0.006; -0.004; 25.648; 8.696; 3.604; -179.7; 3.8; 160.6; 31.7; -44.19; 8.57; 23.1; 12; 2025-05-13; 10:18:54; 51.935535; 4.194972; -126.863113; -24.271477; 7.8; 0.00; 1099.00; 1099.00; 643.00; 1085.00; 1600.00; 1599.00; 600.00; 599.00; 0.00; 0.00; 
308057; 101327; -1.00; 28.3; -0.651; -0.110; 9.762; -0.015; 0.003; 0.002; 25.648; 8.696; 3.604; -179.7; 3.8; 160.7; 31.7; -43.14; 8.46; 23.9; 12; 2025-05-13; 10:18:54; 51.935535; 4.194972; -126.863113; -24.271477; 7.8; 0.00; 1099.00; 1101.00; 646.00; 1084.00; 1599.00; 1599.00; 599.00; 599.00; 0.00; 0.00; 
308157; 101329; -1.11; 28.3; -0.623; 0.125; 9.700; 0.001; 0.004; -0.012; 25.648; 8.696; 3.604; -179.7; 3.8; 160.7; 31.7; -41.03; 8.26; 23.1; 12; 2025-05-13; 10:18:55; 51.935535; 4.194971; -126.943146; -24.252886; 7.8; 0.00; 1100.00; 1099.00; 635.00; 1086.00; 1598.00; 1599.00; 599.00; 599.00; 0.00; 0.00; 
308257; 101325; -0.82; 28.3; -0.666; 0.067; 9.666; 0.032; 0.001; -0.002; 25.648; 8.696; 3.604; -179.7; 3.8; 160.7; 31.7; -37.88; 7.93; 23.1; 12; 2025-05-13; 10:18:55; 51.935535; 4.194971; -126.943146; -24.252886; 7.8; 0.00; 1099.00; 1099.00; 640.00; 1083.00; 1599.00; 1599.00; 599.00; 599.00; 0.00; 0.00; 
308357; 101329; -1.13; 28.3; -0.666; 0.005; 9.753; 0.027; 0.002; -0.006; 25.648; 8.696; 3.604; -179.7; 3.8; 160.8; 31.7; -47.35; 8.87; 23.9; 12; 2025-05-13; 10:18:55; 51.935535; 4.194971; -126.943146; -24.252886; 7.7; 0.00; 1100.00; 1099.00; 645.00; 1085.00; 1599.00; 1600.00; 606.00; 599.00; 0.00; 0.00; 
308457; 101326; -0.92; 28.3; -0.623; 0.057; 9.748; 0.005; 0.004; -0.005; 25.648; 8.696; 3.604; -179.7; 3.8; 160.8; 31.7; -48.40; 8.97; 23.9; 12; 2025-05-13; 10:18:55; 51.935535; 4.194971; -126.943146; -24.252886; 7.7; 0.00; 1099.00; 1099.00; 642.00; 1086.00; 1599.00; 1600.00; 600.00; 600.00; 0.00; 0.00; 
308557; 101327; -0.97; 28.3; -0.642; 0.091; 9.671; 0.018; 0.004; -0.003; 25.648; 8.696; 3.604; -179.7; 3.8; 160.8; 31.7; -46.29; 8.77; 23.1; 12; 2025-05-13; 10:18:55; 51.935535; 4.194971; -126.943146; -24.252886; 7.7; 0.00; 1099.00; 1099.00; 646.00; 1085.00; 1599.00; 1599.00; 599.00; 599.00; 0.00; 0.00; 
308657; 101327; -1.16; 28.3; -0.661; -0.019; 9.796; 0.023; 0.004; -0.002; 25.648; 8.696; 3.604; -179.7; 3.8; 160.9; 31.7; -41.03; 8.26; 23.9; 12; 2025-05-13; 10:18:55; 51.935535; 4.194971; -126.943146; -24.252886; 7.7; 0.00; 1100.00; 1101.00; 642.00; 1087.00; 1599.00; 1599.00; 599.00; 599.00; 0.00; 0.00; 
308757; 101325; -0.80; 28.3; -0.680; 0.034; 9.724; -0.006; 0.003; -0.010; 25.648; 8.696; 3.604; -179.7; 3.8; 160.9; 31.7; -46.29; 8.77; 23.1; 12; 2025-05-13; 10:18:55; 51.935535; 4.194971; -126.943146; -24.252886; 7.7; 0.00; 1099.00; 1099.00; 643.00; 1085.00; 1600.00; 1599.00; 599.00; 599.00; 0.00; 0.00; 
308857; 101328; -1.07; 28.3; -0.685; 0.057; 9.719; -0.003; 0.001; -0.009; 25.648; 8.696; 3.604; -179.7; 3.8; 160.9; 31.7; -41.03; 8.26; 23.1; 12; 2025-05-13; 10:18:55; 51.935535; 4.194971; -126.943146; -24.252886; 7.7; 0.00; 1099.00; 1100.00; 643.00; 1086.00; 1600.00; 1600.00; 600.00; 599.00; 0.00; 0.00; 
308957; 101329; -1.16; 28.3; -0.618; 0.086; 9.733; 0.023; 0.004; 0.001; 25.648; 8.696; 3.604; -179.7; 3.8; 160.9; 31.7; -39.98; 8.15; 23.9; 12; 2025-05-13; 10:18:55; 51.935535; 4.194971; -126.943146; -24.252886; 7.7; 0.00; 1099.00; 1100.00; 642.00; 1091.00; 1599.00; 1599.00; 600.00; 599.00; 0.00; 0.00; 
309057; 101328; -1.05; 28.3; -0.713; 0.057; 9.690; 0.011; 0.004; -0.009; 25.648; 8.696; 3.604; -179.7; 3.8; 161.0; 31.7; -39.98; 8.15; 23.1; 12; 2025-05-13; 10:18:55; 51.935535; 4.194971; -126.943146; -24.252886; 7.7; 0.00; 1096.00; 1100.00; 642.00; 1085.00; 1599.00; 1599.00; 599.00; 599.00; 0.00; 0.00; 
309157; 101329; -1.15; 28.3; -0.584; 0.034; 9.743; 0.002; 0.001; -0.015; 25.648; 8.696; 3.604; -179.7; 3.8; 161.0; 31.6; -53.66; 9.44; 23.9; 12; 2025-05-13; 10:18:56; 51.935535; 4.194970; -126.977463; -24.252886; 7.7; 0.00; 1099.00; 1100.00; 645.00; 1086.00; 1600.00; 1599.00; 599.00; 599.00; 0.00; 0.00; 
309257; 101329; -1.14; 28.3; -0.575; 0.235; 9.666; 0.014; 0.004; -0.002; 25.648; 8.696; 3.604; -179.7; 3.8; 161.0; 31.7; -46.29; 8.77; 23.9; 12; 2025-05-13; 10:18:56; 51.935535; 4.194970; -126.977463; -24.252886; 7.7; 0.00; 1099.00; 1099.00; 643.00; 1085.00; 1599.00; 1600.00; 599.00; 599.00; 0.00; 0.00; 
309357; 101329; -1.18; 28.3; -0.637; -0.043; 9.757; 0.022; -0.001; -0.001; 25.648; 8.696; 3.604; -179.7; 3.8; 161.0; 31.7; -47.35; 8.87; 23.1; 12; 2025-05-13; 10:18:56; 51.935535; 4.194970; -126.977463; -24.252886; 7.7; 0.00; 1099.00; 1102.00; 639.00; 1087.00; 1598.00; 1600.00; 600.00; 600.00; 0.00; 0.00; 
309457; 101329; -1.13; 28.3; -0.608; 0.053; 9.757; 0.004; 0.004; -0.006; 25.648; 8.696; 3.604; -179.7; 3.8; 161.1; 31.7; -56.81; 9.71; 23.9; 12; 2025-05-13; 10:18:56; 51.935535; 4.194970; -126.977463; -24.252886; 7.7; 0.00; 1099.00; 1099.00; 639.00; 1084.00; 1599.00; 1599.00; 599.00; 599.00; 0.00; 0.00; 
309557; 101329; -1.12; 28.3; -0.699; -0.019; 9.724; -0.006; 0.003; -0.005; 25.648; 8.696; 3.604; -179.7; 3.8; 161.1; 31.7; -44.19; 8.57; 23.9; 12; 2025-05-13; 10:18:56; 51.935535; 4.194970; -126.977463; -24.252886; 7.7; 0.00; 1099.00; 1100.00; 637.00; 1085.00; 1599.00; 1599.00; 599.00; 599.00; 0.00; 0.00; 
309657; 101328; -1.06; 28.3; -0.709; 0.038; 9.690; 0.013; 0.004; -0.004; 25.648; 8.696; 3.604; -179.7; 3.8; 161.1; 31.7; -41.03; 8.26; 23.9; 12; 2025-05-13; 10:18:56; 51.935535; 4.194970; -126.977463; -24.252886; 7.7; 0.00; 1095.00; 1099.00; 640.00; 1083.00; 1600.00; 1599.00; 599.00; 599.00; 0.00; 0.00; 
309757; 101328; -1.08; 28.3; -0.618; 0.057; 9.772; 0.023; 0.001; -0.004; 25.648; 8.696; 3.604; -179.7; 3.8; 161.1; 31.7; -43.14; 8.46; 23.9; 12; 2025-05-13; 10:18:56; 51.935535; 4.194970; -126.977463; -24.252886; 7.7; 0.00; 1099.00; 1099.00; 639.00; 1083.00; 1597.00; 1600.00; 599.00; 599.00; 0.00; 0.00; 
309857; 101327; -1.02; 28.3; -0.704; -0.096; 9.719; 0.003; 0.003; -0.007; 25.648; 8.696; 3.604; -179.8; 3.8; 161.1; 31.7; -47.35; 8.87; 23.9; 12; 2025-05-13; 10:18:56; 51.935535; 4.194970; -126.977463; -24.252886; 7.7; 0.00; 1098.00; 1099.00; 640.00; 1084.00; 1599.00; 1600.00; 600.00; 600.00; 0.00; 0.00; 
309957; 101327; -0.98; 28.3; -0.728; 0.115; 9.551; 0.003; 0.001; -0.004; 27.417; 8.696; 2.917; -179.7; 3.8; 161.2; 31.7; -51.55; 9.25; 23.9; 12; 2025-05-13; 10:18:56; 51.935535; 4.194970; -126.977463; -24.252886; 7.7; 0.00; 1100.00; 1102.00; 642.00; 1085.00; 1599.00; 1599.00; 599.00; 599.00; 0.00; 0.00; 
310057; 101324; -0.77; 28.3; -0.613; 0.091; 9.810; 0.010; 0.005; -0.007; 27.417; 8.696; 2.917; -179.7; 3.8; 161.3; 31.7; -47.35; 8.87; 23.9; 12; 2025-05-13; 10:18:56; 51.935535; 4.194970; -126.977463; -24.252886; 7.7; 0.00; 1099.00; 1100.00; 636.00; 1085.00; 1599.00; 1599.00; 599.00; 599.00; 0.00; 0.00; 
310157; 101325; -0.84; 28.3; -0.642; 0.115; 9.623; 0.025; 0.005; -0.003; 27.417; 8.696; 2.917; -179.7; 3.8; 161.3; 31.7; -53.66; 9.44; 23.9; 12; 2025-05-13; 10:18:57; 51.935535; 4.194971; -126.908829; -24.308546; 7.7; 0.00; 1099.00; 1101.00; 639.00; 1086.00; 1598.00; 1599.00; 599.00; 599.00; 0.00; 0.00; 
310257; 101328; -1.10; 28.3; -0.728; -0.091; 9.681; 0.006; 0.004; -0.003; 27.417; 8.696; 2.917; -179.7; 3.8; 161.4; 31.6; -44.19; 8.57; 23.9; 12; 2025-05-13; 10:18:57; 51.935535; 4.194971; -126.908829; -24.308546; 7.7; 0.00; 1099.00; 1099.00; 638.00; 1087.00; 1600.00; 1600.00; 600.00; 600.00; 0.00; 0.00; 
310357; 101327; -0.98; 28.3; -0.579; 0.062; 9.719; 0.000; 0.003; -0.012; 27.417; 8.696; 2.917; -179.7; 3.8; 161.4; 31.7; -48.40; 8.97; 23.9; 12; 2025-05-13; 10:18:57; 51.935535; 4.194971; -126.908829; -24.308546; 8.0; 0.00; 1098.00; 1099.00; 642.00; 1087.00; 1600.00; 1599.00; 600.00; 600.00; 0.00; 0.00; 
310457; 101326; -0.92; 28.3; -0.642; -0.010; 9.762; 0.017; 0.002; -0.010; 27.417; 10.471; 3.261; -179.8; 3.8; 161.3; 31.7; -43.14; 8.46; 23.9; 12; 2025-05-13; 10:18:57; 51.935535; 4.194971; -126.908829; -24.308546; 8.0; 0.00; 1095.00; 1100.00; 640.00; 1083.00; 1598.00; 1599.00; 599.00; 599.00; 0.00; 0.00; 
310557; 101328; -1.07; 28.3; -0.646; 0.010; 9.724; 0.026; 0.004; 0.000; 27.417; 10.471; 3.261; -179.8; 3.8; 161.2; 31.6; -47.35; 8.87; 23.9; 12; 2025-05-13; 10:18:57; 51.935535; 4.194971; -126.908829; -24.308546; 8.0; 0.00; 1099.00; 1099.00; 642.00; 1085.00; 1598.00; 1599.00; 607.00; 599.00; 0.00; 0.00; 
310657; 101330; -1.19; 28.3; -0.666; -0.096; 9.681; 0.009; 0.000; -0.006; 27.417; 10.471; 3.261; -179.8; 3.8; 161.1; 31.7; -47.35; 8.87; 23.9; 12; 2025-05-13; 10:18:57; 51.935535; 4.194971; -126.908829; -24.308546; 8.0; 0.00; 1099.00; 1099.00; 646.00; 1086.00; 1599.00; 1600.00; 599.00; 600.00; 0.00; 0.00; 
310757; 101329; -1.13; 28.3; -0.661; 0.038; 9.757; 0.022; 0.002; -0.007; 27.417; 10.471; 3.261; -179.8; 3.8; 161.0; 31.7; -48.40; 8.97; 23.9; 12; 2025-05-13; 10:18:57; 51.935535; 4.194971; -126.908829; -24.308546; 8.0; 0.00; 1099.00; 1100.00; 647.00; 1086.00; 1600.00; 1599.00; 599.00; 600.00; 0.00; 0.00; 
310857; 101328; -1.03; 28.3; -0.560; -0.024; 9.762; 0.025; 0.002; 0.000; 27.417; 10.471; 3.261; -179.8; 3.8; 160.9; 31.7; -43.14; 8.46; 23.9; 12; 2025-05-13; 10:18:57; 51.935535; 4.194971; -126.908829; -24.308546; 8.0; 0.00; 1100.00; 1100.00; 645.00; 1086.00; 1599.00; 1599.00; 599.00; 599.00; 0.00; 0.00; 
310957; 101329; -1.13; 28.3; -0.603; -0.105; 9.676; -0.005; 0.002; -0.006; 27.417; 10.471; 3.261; -179.8; 3.8; 160.8; 31.7; -48.40; 8.97; 23.9; 12; 2025-05-13; 10:18:57; 51.935535; 4.194971; -126.908829; -24.308546; 8.0; 0.00; 1099.00; 1100.00; 639.00; 1082.00; 1599.00; 1599.00; 599.00; 599.00; 0.00; 0.00; 
311057; 101329; -1.17; 28.3; -0.690; 0.196; 9.690; -0.007; 0.004; -0.007; 27.417; 10.471; 3.261; -179.8; 3.8; 160.8; 31.7; -46.29; 8.77; 23.9; 12; 2025-05-13; 10:18:57; 51.935535; 4.194971; -126.908829; -24.308546; 8.0; 0.00; 1100.00; 1099.00; 642.00; 1086.00; 1600.00; 1599.00; 599.00; 599.00; 0.00; 0.00; 
311157; 101328; -1.09; 28.3; -0.737; 0.105; 9.930; 0.007; 0.003; -0.001; 27.417; 10.471; 3.261; -179.8; 3.8; 160.7; 31.7; -51.55; 9.25; 23.9; 12; 2025-05-13; 10:18:58; 51.935535; 4.194970; -127.000381; -24.271477; 8.0; 0.00; 1106.00; 1099.00; 643.00; 1084.00; 1599.00; 1599.00; 599.00; 600.00; 0.00; 0.00; 
311257; 101325; -0.86; 28.3; -0.579; -0.096; 9.719; -0.014; 0.003; -0.010; 27.417; 10.471; 3.261; -179.8; 3.8; 160.6; 31.7; -46.29; 8.77; 23.9; 12; 2025-05-13; 10:18:58; 51.935535; 4.194970; -127.000381; -24.271477; 8.0; 0.00; 1078.00; 1099.00; 642.00; 1084.00; 1594.00; 1599.00; 599.00; 599.00; 0.00; 0.00; 
311357; 101328; -1.08; 28.3; -0.570; 0.014; 9.595; -0.004; 0.003; -0.010; 27.417; 10.471; 3.261; -179.8; 3.8; 160.5; 31.7; -53.66; 9.44; 23.9; 12; 2025-05-13; 10:18:58; 51.935535; 4.194970; -127.000381; -24.271477; 8.0; 0.00; 1098.00; 1101.00; 642.00; 1086.00; 1600.00; 1599.00; 599.00; 599.00; 0.00; 0.00; 
311457; 101328; -1.04; 28.3; -0.694; 0.153; 9.776; 0.026; 0.003; -0.001; 27.417; 10.471; 3.261; -179.8; 3.8; 160.5; 31.7; -51.55; 9.25; 23.9; 12; 2025-05-13; 10:18:58; 51.935535; 4.194970; -127.000381; -24.271477; 8.0; 0.00; 1099.00; 1099.00; 637.00; 1084.00; 1598.00; 1599.00; 599.00; 599.00; 0.00; 0.00; 
311557; 101327; -1.02; 28.3; -0.627; -0.091; 9.695; 0.033; 0.002; -0.006; 27.417; 10.471; 3.261; -179.8; 3.8; 160.4; 31.6; -55.76; 9.62; 23.9; 12; 2025-05-13; 10:18:58; 51.935535; 4.194970; -127.000381; -24.271477; 8.0; 0.00; 1099.00; 1100.00; 639.00; 1086.00; 1611.00; 1600.00; 599.00; 599.00; 0.00; 0.00; 
311657; 101329; -1.19; 28.3; -0.608; 0.125; 9.700; 0.007; -0.001; -0.005; 27.417; 10.471; 3.261; -179.8; 3.8; 160.4; 31.6; -51.55; 9.25; 23.9; 12; 2025-05-13; 10:18:58; 51.935535; 4.194970; -127.000381; -24.271477; 8.0; 0.00; 1098.00; 1100.00; 641.00; 1086.00; 1599.00; 1599.00; 599.00; 600.00; 0.00; 0.00; 
311757; 101331; -1.29; 28.3; -0.623; -0.024; 9.685; 0.009; 0.004; -0.005; 27.417; 10.471; 3.261; -179.8; 3.8; 160.3; 31.7; -47.35; 8.87; 23.9; 12; 2025-05-13; 10:18:58; 51.935535; 4.194970; -127.000381; -24.271477; 8.0; 0.00; 1099.00; 1100.00; 640.00; 1085.00; 1598.00; 1599.00; 599.00; 599.00; 0.00; 0.00; 
311857; 101327; -0.97; 28.3; -0.637; 0.062; 9.681; 0.009; 0.007; -0.003; 26.355; 9.406; 3.261; -179.8; 3.8; 160.3; 31.6; -53.66; 9.44; 23.9; 12; 2025-05-13; 10:18:58; 51.935535; 4.194970; -127.000381; -24.271477; 8.0; 0.00; 1097.00; 1100.00; 640.00; 1085.00; 1602.00; 1599.00; 599.00; 599.00; 0.00; 0.00; 
311957; 101329; -1.16; 28.3; -0.651; -0.024; 9.709; -0.002; 0.004; -0.003; 26.355; 9.406; 3.261; -179.8; 3.8; 160.3; 31.6; -47.35; 8.87; 23.9; 12; 2025-05-13; 10:18:58; 51.935535; 4.194970; -127.000381; -24.271477; 8.0; 0.00; 1099.00; 1099.00; 638.00; 1084.00; 1600.00; 1599.00; 599.00; 599.00; 0.00; 0.00; 
312057; 101328; -1.10; 28.3; -0.646; 0.043; 9.738; 0.004; 0.003; -0.007; 26.355; 9.406; 3.261; -179.8; 3.8; 160.3; 31.6; -47.35; 8.87; 23.9; 12; 2025-05-13; 10:18:58; 51.935535; 4.194970; -127.000381; -24.271477; 8.0; 0.00; 1099.00; 1100.00; 641.00; 1086.00; 1600.00; 1600.00; 599.00; 599.00; 0.00; 0.00; 
312157; 101328; -1.08; 28.3; -0.646; 0.005; 9.690; -0.001; 0.004; -0.009; 26.355; 9.406; 3.261; -179.8; 3.8; 160.3; 31.7; -37.88; 7.93; 23.9; 12; 2025-05-13; 10:18:59; 51.935535; 4.194970; -127.000381; -24.178637; 8.0; 0.00; 1099.00; 1099.00; 639.00; 1085.00; 1599.00; 1599.00; 599.00; 599.00; 0.00; 0.00; 
312257; 101329; -1.16; 28.3; -0.723; 0.072; 9.662; 0.017; 0.004; -0.006; 26.355; 9.406; 3.261; -179.8; 3.8; 160.3; 31.7; -41.03; 8.26; 23.9; 12; 2025-05-13; 10:18:59; 51.935535; 4.194970; -127.000381; -24.178637; 8.1; 0.00; 1095.00; 1100.00; 639.00; 1085.00; 1599.00; 1599.00; 599.00; 599.00; 0.00; 0.00; 
312357; 101331; -1.29; 28.3; -0.670; 0.215; 9.805; 0.021; 0.004; 0.000; 27.593; 10.293; 3.432; -179.7; 3.8; 160.3; 31.7; -47.35; 8.87; 23.9; 12; 2025-05-13; 10:18:59; 51.935535; 4.194970; -127.000381; -24.178637; 8.1; 0.00; 1096.00; 1099.00; 644.00; 1085.00; 1599.00; 1599.00; 599.00; 599.00; 0.00; 0.00; 
312457; 101329; -1.17; 28.3; -0.656; -0.158; 9.800; 0.013; 0.002; -0.003; 27.593; 10.293; 3.432; -179.8; 3.8; 160.3; 31.7; -46.29; 8.77; 23.9; 12; 2025-05-13; 10:18:59; 51.935535; 4.194970; -127.000381; -24.178637; 8.1; 0.00; 1099.00; 1099.00; 643.00; 1083.00; 1599.00; 1599.00; 600.00; 599.00; 0.00; 0.00; 
312557; 101329; -1.12; 28.3; -0.632; 0.182; 9.748; -0.005; 0.004; -0.010; 27.593; 10.293; 3.432; -179.7; 3.8; 160.2; 31.7; -53.66; 9.44; 23.9; 12; 2025-05-13; 10:18:59; 51.935535; 4.194970; -127.000381; -24.178637; 8.1; 0.00; 1099.00; 1099.00; 643.00; 1085.00; 1599.00; 1599.00; 600.00; 600.00; 0.00; 0.00; 
312657; 101328; -1.10; 28.3; -0.666; 0.158; 9.810; 0.005; 0.003; -0.001; 27.593; 10.293; 3.432; -179.7; 3.8; 160.2; 31.7; -51.55; 9.25; 23.9; 12; 2025-05-13; 10:18:59; 51.935535; 4.194970; -127.000381; -24.178637; 8.1; 0.00; 1099.00; 1101.00; 643.00; 1084.00; 1599.00; 1595.00; 599.00; 599.00; 0.00; 0.00; 
312757; 101328; -1.06; 28.3; -0.656; -0.091; 9.671; 0.011; 0.002; -0.007; 27.593; 10.293; 3.432; -179.7; 3.8; 160.2; 31.7; -47.35; 8.87; 23.9; 12; 2025-05-13; 10:18:59; 51.935535; 4.194970; -127.000381; -24.178637; 8.1; 0.00; 1099.00; 1100.00; 644.00; 1083.00; 1600.00; 1599.00; 599.00; 599.00; 0.00; 0.00; 
312857; 101328; -1.10; 28.3; -0.594; 0.153; 9.695; 0.017; 0.005; -0.009; 27.593; 10.293; 3.432; -179.7; 3.8; 160.2; 31.7; -47.35; 8.87; 23.9; 12; 2025-05-13; 10:18:59; 51.935535; 4.194970; -127.000381; -24.178637; 8.1; 0.00; 1099.00; 1099.00; 646.00; 1083.00; 1598.00; 1599.00; 599.00; 599.00; 0.00; 0.00; 
312957; 101329; -1.14; 28.3; -0.666; 0.101; 9.700; 0.023; 0.001; 0.001; 27.593; 10.293; 3.432; -179.7; 3.8; 160.1; 31.7; -51.55; 9.25; 23.9; 12; 2025-05-13; 10:18:59; 51.935535; 4.194970; -127.000381; -24.178637; 8.1; 0.00; 1094.00; 1099.00; 643.00; 1085.00; 1600.00; 1599.00; 600.00; 599.00; 0.00; 0.00; 
313057; 101326; -0.92; 28.3; -0.570; 0.014; 9.695; 0.000; 0.005; -0.006; 27.593; 10.293; 3.432; -179.7; 3.8; 160.1; 31.7; -51.55; 9.25; 23.9; 12; 2025-05-13; 10:18:59; 51.935535; 4.194970; -127.000381; -24.178637; 8.1; 0.00; 1102.00; 1100.00; 640.00; 1085.00; 1599.00; 1599.00; 600.00; 599.00; 0.00; 0.00; 
313157; 101327; -0.96; 28.3; -0.646; 0.110; 9.753; 0.000; 0.005; -0.010; 27.593; 10.293; 3.432; -179.7; 3.8; 160.1; 31.6; -51.55; 9.25; 23.9; 12; 2025-05-13; 10:19:00; 51.935535; 4.194969; -127.034698; -24.122978; 8.1; 0.00; 1100.00; 1100.00; 646.00; 1085.00; 1599.00; 1599.00; 599.00; 599.00; 0.00; 0.00; 
313257; 101328; -1.06; 28.3; -0.579; 0.067; 9.786; 0.016; 0.002; -0.004; 27.593; 10.293; 3.432; -179.7; 3.8; 160.1; 31.7; -53.66; 9.44; 23.9; 12; 2025-05-13; 10:19:00; 51.935535; 4.194969; -127.034698; -24.122978; 8.1; 0.00; 1099.00; 1114.00; 670.00; 1086.00; 1599.00; 1599.00; 599.00; 599.00; 0.00; 0.00; 
313357; 101330; -1.20; 28.3; -0.618; -0.029; 9.743; 0.001; 0.003; -0.007; 27.593; 10.293; 3.432; -179.7; 3.8; 160.1; 31.7; -46.29; 8.77; 23.9; 12; 2025-05-13; 10:19:00; 51.935535; 4.194969; -127.034698; -24.122978; 8.1; 0.00; 1099.00; 1092.00; 638.00; 1085.00; 1599.00; 1600.00; 600.00; 599.00; 0.00; 0.00; 
313457; 101328; -1.08; 28.3; -0.603; 0.101; 9.714; -0.003; 0.002; -0.007; 27.593; 10.293; 3.432; -179.7; 3.8; 160.0; 31.7; -44.19; 8.57; 23.9; 12; 2025-05-13; 10:19:00; 51.935535; 4.194969; -127.034698; -24.122978; 8.1; 0.00; 1099.00; 1099.00; 636.00; 1084.00; 1598.00; 1600.00; 600.00; 600.00; 0.00; 0.00; 
313557; 101329; -1.18; 28.3; -0.589; -0.010; 9.709; 0.019; 0.004; 0.001; 27.593; 10.293; 3.432; -179.7; 3.7; 160.0; 31.7; -46.29; 8.77; 23.9; 12; 2025-05-13; 10:19:00; 51.935535; 4.194969; -127.034698; -24.122978; 8.1; 0.00; 1099.00; 1099.00; 640.00; 1084.00; 1601.00; 1599.00; 599.00; 599.00; 0.00; 0.00; 
313657; 101327; -1.00; 28.3; -0.579; -0.096; 9.829; 0.002; 0.003; -0.005; 27.593; 10.293; 3.432; -179.7; 3.7; 160.0; 31.7; -47.35; 8.87; 23.9; 12; 2025-05-13; 10:19:00; 51.935535; 4.194969; -127.034698; -24.122978; 8.1; 0.00; 1099.00; 1100.00; 640.00; 1084.00; 1600.00; 1599.00; 599.00; 599.00; 0.00; 0.00; 
313757; 101327; -0.97; 28.3; -0.637; 0.024; 9.709; 0.001; 0.004; -0.006; 27.593; 10.293; 3.432; -179.7; 3.7; 160.0; 31.7; -48.40; 8.97; 23.9; 12; 2025-05-13; 10:19:00; 51.935535; 4.194969; -127.034698; -24.122978; 8.1; 0.00; 1099.00; 1099.00; 639.00; 1085.00; 1601.00; 1599.00; 599.00; 599.00; 0.00; 0.00; 
313857; 101327; -1.01; 28.3; -0.690; 0.019; 9.776; 0.006; 0.004; -0.005; 27.593; 10.293; 3.432; -179.8; 3.7; 160.0; 31.7; -53.66; 9.44; 23.9; 12; 2025-05-13; 10:19:00; 51.935535; 4.194969; -127.034698; -24.122978; 8.1; 0.00; 1099.00; 1099.00; 639.00; 1088.00; 1602.00; 1602.00; 602.00; 602.00; 0.00; 0.00; 
313957; 101328; -1.06; 28.3; -0.594; -0.048; 9.772; 0.005; 0.002; -0.001; 27.593; 10.293; 3.432; -179.8; 3.7; 160.0; 31.7; -47.35; 8.87; 23.9; 12; 2025-05-13; 10:19:00; 51.935535; 4.194969; -127.034698; -24.122978; 8.1; 0.00; 1099.00; 1099.00; 638.00; 1085.00; 1599.00; 1599.00; 599.00; 599.00; 0.00; 0.00; 
314057; 101331; -1.28; 28.3; -0.651; 0.053; 9.762; 0.007; 0.004; -0.010; 27.593; 10.293; 3.432; -179.8; 3.7; 159.9; 31.7; -51.55; 9.25; 23.9; 12; 2025-05-13; 10:19:00; 51.935535; 4.194969; -127.034698; -24.122978; 8.1; 0.00; 1100.00; 1099.00; 637.00; 1083.00; 1599.00; 1599.00; 599.00; 599.00; 0.00; 0.00; 
314157; 101328; -1.07; 28.3; -0.594; 0.029; 9.753; 0.003; 0.004; -0.004; 27.593; 10.293; 3.432; -179.8; 3.7; 159.9; 31.7; -46.29; 8.77; 23.9; 12; 2025-05-13; 10:19:01; 51.935535; 4.194970; -127.023239; -24.067318; 8.1; 0.00; 1096.00; 1100.00; 640.00; 1085.00; 1599.00; 1599.00; 599.00; 599.00; 0.00; 0.00; 
314257; 101329; -1.18; 28.3; -0.589; 0.005; 9.709; 0.010; 0.004; -0.003; 27.593; 10.293; 3.432; -179.8; 3.7; 159.9; 31.7; -48.40; 8.97; 23.9; 12; 2025-05-13; 10:19:01; 51.935535; 4.194970; -127.023239; -24.067318; 8.2; 0.00; 1099.00; 1100.00; 639.00; 1084.00; 1599.00; 1599.00; 599.00; 599.00; 0.00; 0.00; 
314357; 101332; -1.38; 28.3; -0.666; 0.038; 9.685; 0.012; 0.004; -0.005; 27.593; 10.293; 3.432; -179.8; 3.7; 159.9; 31.7; -51.55; 9.25; 23.9; 12; 2025-05-13; 10:19:01; 51.935535; 4.194970; -127.023239; -24.067318; 8.2; 0.00; 1099.00; 1100.00; 643.00; 1086.00; 1601.00; 1600.00; 600.00; 600.00; 0.00; 0.00; 
314457; 101331; -1.29; 28.3; -0.618; 0.168; 9.786; 0.020; 0.004; -0.001; 27.593; 10.293; 3.432; -179.7; 3.7; 159.9; 31.7; -48.40; 8.97; 23.9; 12; 2025-05-13; 10:19:01; 51.935535; 4.194970; -127.023239; -24.067318; 8.2; 0.00; 1093.00; 1100.00; 640.00; 1087.00; 1599.00; 1599.00; 599.00; 600.00; 0.00; 0.00; 
314557; 101329; -1.19; 28.3; -0.642; -0.014; 9.724; 0.013; 0.003; -0.005; 27.593; 10.293; 3.432; -179.8; 3.7; 159.9; 31.7; -51.55; 9.25; 23.9; 12; 2025-05-13; 10:19:01; 51.935535; 4.194970; -127.023239; -24.067318; 8.2; 0.00; 1101.00; 1099.00; 644.00; 1083.00; 1600.00; 1599.00; 599.00; 599.00; 0.00; 0.00; 
314657; 101327; -1.01; 28.3; -0.651; 0.101; 9.676; -0.001; 0.005; -0.011; 27.593; 10.293; 3.432; -179.7; 3.7; 159.9; 31.7; -48.40; 8.97; 23.9; 12; 2025-05-13; 10:19:01; 51.935535; 4.194970; -127.023239; -24.067318; 8.2; 0.00; 1099.00; 1102.00; 634.00; 1055.00; 1599.00; 1599.00; 599.00; 599.00; 0.00; 0.00; 
314757; 101330; -1.22; 28.3; -0.680; 0.115; 9.666; 0.011; 0.002; -0.005; 27.593; 10.293; 3.432; -179.7; 3.7; 159.9; 31.7; -48.40; 8.97; 23.9; 12; 2025-05-13; 10:19:01; 51.935535; 4.194970; -127.023239; -24.067318; 8.2; 0.00; 1099.00; 1102.00; 643.00; 1084.00; 1598.00; 1600.00; 600.00; 600.00; 0.00; 0.00; 
314857; 101329; -1.13; 28.3; -0.627; 0.014; 9.719; 0.004; 0.002; -0.005; 27.593; 10.293; 3.432; -179.7; 3.7; 159.9; 31.7; -51.55; 9.25; 23.9; 12; 2025-05-13; 10:19:01; 51.935535; 4.194970; -127.023239; -24.067318; 8.2; 0.00; 1099.00; 1099.00; 643.00; 1087.00; 1599.00; 1599.00; 600.00; 600.00; 0.00; 0.00; 
314957; 101328; -1.05; 28.3; -0.646; 0.067; 9.733; 0.007; 0.002; -0.003; 27.593; 10.293; 3.432; -179.7; 3.7; 159.8; 31.7; -48.40; 8.97; 23.9; 12; 2025-05-13; 10:19:01; 51.935535; 4.194970; -127.023239; -24.067318; 8.2; 0.00; 1100.00; 1098.00; 648.00; 1085.00; 1599.00; 1599.00; 599.00; 600.00; 0.00; 0.00; 
315057; 101331; -1.31; 28.3; -0.603; 0.029; 9.719; 0.012; 0.002; -0.007; 27.593; 10.293; 3.432; -179.7; 3.7; 159.8; 31.7; -56.81; 9.71; 23.9; 12; 2025-05-13; 10:19:01; 51.935535; 4.194970; -127.023239; -24.067318; 8.2; 0.00; 1099.00; 1013.00; 644.00; 1085.00; 1599.00; 1599.00; 599.00; 599.00; 0.00; 0.00; 
315157; 101332; -1.43; 28.3; -0.670; 0.072; 9.695; 0.007; 0.005; -0.005; 27.593; 10.293; 3.432; -179.7; 3.7; 159.8; 31.7; -41.03; 8.26; 23.9; 12; 2025-05-13; 10:19:02; 51.935535; 4.194969; -127.057556; -24.048840; 8.2; 0.00; 1099.00; 1099.00; 642.00; 1087.00; 1600.00; 1600.00; 599.00; 599.00; 0.00; 0.00; 
315257; 101332; -1.37; 28.3; -0.618; 0.048; 9.738; 0.003; 0.003; 0.000; 27.770; 8.341; 2.917; -179.7; 3.7; 160.0; 31.7; -44.19; 8.57; 23.9; 12; 2025-05-13; 10:19:02; 51.935535; 4.194969; -127.057556; -24.048840; 8.4; 0.00; 1099.00; 1099.00; 643.00; 1083.00; 1599.00; 1599.00; 600.00; 600.00; 0.00; 0.00; 
315357; 101333; -1.47; 28.3; -0.603; 0.024; 9.729; 0.013; 0.004; -0.010; 27.770; 8.341; 2.917; -179.7; 3.7; 160.2; 31.7; -51.55; 9.25; 23.9; 12; 2025-05-13; 10:19:02; 51.935535; 4.194969; -127.057556; -24.048840; 8.4; 0.00; 1099.00; 1099.00; 639.00; 1085.00; 1600.00; 1599.00; 599.00; 599.00; 0.00; 0.00; 
315457; 101334; -1.53; 28.3; -0.713; 0.053; 9.887; -0.007; 0.004; -0.003; 27.770; 8.341; 2.917; -179.7; 3.7; 160.3; 31.7; -51.55; 9.25; 23.9; 12; 2025-05-13; 10:19:02; 51.935535; 4.194969; -127.057556; -24.048840; 8.4; 0.00; 1100.00; 1100.00; 640.00; 1083.00; 1600.00; 1599.00; 599.00; 599.00; 0.00; 0.00; 
315557; 101331; -1.29; 28.3; -0.637; 0.101; 9.800; 0.032; 0.002; 0.004; 27.770; 8.341; 2.917; -179.7; 3.7; 160.5; 31.7; -47.35; 8.87; 23.9; 12; 2025-05-13; 10:19:02; 51.935535; 4.194969; -127.057556; -24.048840; 8.4; 0.00; 1098.00; 1099.00; 639.00; 1084.00; 1598.00; 1599.00; 599.00; 599.00; 0.00; 0.00; 
315657; 101334; -1.54; 28.3; -0.646; -0.230; 9.733; 0.020; 0.002; -0.012; 27.770; 8.341; 2.917; -179.8; 3.7; 160.6; 31.6; -47.35; 8.87; 23.9; 12; 2025-05-13; 10:19:02; 51.935535; 4.194969; -127.057556; -24.048840; 8.4; 0.00; 1093.00; 1099.00; 638.00; 1084.00; 1598.00; 1599.00; 599.00; 598.00; 0.00; 0.00; 
315757; 101331; -1.31; 28.3; -0.670; -0.053; 9.595; -0.006; 0.004; -0.011; 27.770; 8.341; 2.917; -179.8; 3.8; 160.8; 31.7; -53.66; 9.44; 23.9; 12; 2025-05-13; 10:19:02; 51.935535; 4.194969; -127.057556; -24.048840; 8.4; 0.00; 1103.00; 1101.00; 639.00; 1087.00; 1599.00; 1599.00; 599.00; 599.00; 0.00; 0.00; 
315857; 101332; -1.39; 28.3; -0.670; 0.101; 9.762; -0.003; 0.003; 0.003; 27.770; 8.341; 2.917; -179.8; 3.8; 160.9; 31.7; -43.14; 8.46; 23.9; 12; 2025-05-13; 10:19:02; 51.935535; 4.194969; -127.057556; -24.048840; 8.4; 0.00; 1096.00; 1100.00; 638.00; 1087.00; 1599.00; 1599.00; 599.00; 599.00; 0.00; 0.00; 
315957; 101329; -1.19; 28.3; -0.575; -0.034; 9.757; 0.016; 0.004; -0.002; 27.770; 8.341; 2.917; -179.8; 3.7; 161.0; 31.8; -53.66; 9.44; 23.9; 12; 2025-05-13; 10:19:02; 51.935535; 4.194969; -127.057556; -24.048840; 8.4; 0.00; 1096.00; 1100.00; 637.00; 1085.00; 1599.00; 1599.00; 599.00; 599.00; 0.00; 0.00; 
316057; 101329; -1.19; 28.3; -0.670; 0.000; 9.614; 0.013; 0.005; -0.015; 27.770; 8.341; 2.917; -179.9; 3.8; 161.1; 31.7; -48.40; 8.97; 23.9; 12; 2025-05-13; 10:19:02; 51.935535; 4.194969; -127.057556; -24.048840; 8.4; 0.00; 1095.00; 1099.00; 637.00; 1086.00; 1600.00; 1599.00; 599.00; 599.00; 0.00; 0.00; 
316157; 101328; -1.07; 28.3; -0.637; 0.120; 9.676; -0.001; 0.002; -0.006; 27.770; 8.341; 2.917; -179.8; 3.8; 161.2; 31.7; -53.66; 9.44; 23.9; 12; 2025-05-13; 10:19:03; 51.935535; 4.194968; -127.103333; -24.011658; 8.4; 0.00; 1099.00; 1101.00; 636.00; 1083.00; 1599.00; 1600.00; 600.00; 600.00; 0.00; 0.00; 
316257; 101329; -1.16; 28.3; -0.642; 0.024; 9.719; 0.002; 0.003; -0.005; 27.770; 8.341; 2.917; -179.8; 3.8; 161.3; 31.7; -55.76; 9.62; 23.9; 12; 2025-05-13; 10:19:03; 51.935535; 4.194968; -127.103333; -24.011658; 8.4; 0.00; 1099.00; 1107.00; 666.00; 1086.00; 1599.00; 1599.00; 599.00; 599.00; 0.00; 0.00; 
316357; 101332; -1.40; 28.3; -0.632; 0.077; 9.681; 0.005; 0.007; -0.011; 27.770; 8.341; 2.917; -179.8; 3.8; 161.4; 31.7; -44.19; 8.57; 23.9; 12; 2025-05-13; 10:19:03; 51.935535; 4.194968; -127.103333; -24.011658; 8.4; 0.00; 1100.00; 1101.00; 643.00; 1086.00; 1599.00; 1599.00; 599.00; 599.00; 0.00; 0.00; 
316457; 101333; -1.48; 28.3; -0.713; 0.148; 9.781; 0.003; 0.001; -0.005; 27.770; 8.341; 2.917; -179.8; 3.8; 161.5; 31.7; -53.66; 9.44; 23.9; 12; 2025-05-13; 10:19:03; 51.935535; 4.194968; -127.103333; -24.011658; 8.4; 0.00; 1099.00; 1100.00; 644.00; 1085.00; 1598.00; 1599.00; 599.00; 599.00; 0.00; 0.00; 
316557; 101332; -1.40; 28.3; -0.594; 0.000; 9.729; 0.011; 0.004; -0.004; 27.770; 8.341; 2.917; -179.8; 3.8; 161.6; 31.7; -44.19; 8.57; 23.9; 12; 2025-05-13; 10:19:03; 51.935535; 4.194968; -127.103333; -24.011658; 8.4; 0.00; 1099.00; 1099.00; 642.00; 1084.00; 1599.00; 1600.00; 600.00; 600.00; 0.00; 0.00; 
316657; 101333; -1.48; 28.3; -0.589; -0.019; 9.705; 0.018; 0.003; -0.012; 27.770; 8.341; 2.917; -179.8; 3.7; 161.7; 31.7; -48.40; 8.97; 23.9; 12; 2025-05-13; 10:19:03; 51.935535; 4.194968; -127.103333; -24.011658; 8.4; 0.00; 1099.00; 1099.00; 641.00; 1085.00; 1599.00; 1600.00; 599.00; 600.00; 0.00; 0.00; 
316757; 101332; -1.41; 28.3; -0.685; -0.005; 9.638; 0.019; 0.004; -0.001; 27.770; 8.341; 2.917; -179.8; 3.8; 161.8; 31.7; -55.76; 9.62; 23.9; 12; 2025-05-13; 10:19:03; 51.935535; 4.194968; -127.103333; -24.011658; 8.4; 0.00; 1100.00; 1102.00; 642.00; 1086.00; 1599.00; 1599.00; 599.00; 599.00; 0.00; 0.00; 
316857; 101331; -1.58; 28.3; -0.575; -0.129; 9.719; 0.014; 0.004; 0.002; 27.770; 8.341; 2.917; -179.9; 3.7; 161.9; 31.7; -46.29; 8.77; 23.9; 12; 2025-05-13; 10:19:03; 51.935535; 4.194968; -127.103333; -24.011658; 8.4; 0.00; 1099.00; 1100.00; 643.00; 1086.00; 1600.00; 1599.00; 599.00; 599.00; 0.00; 0.00; 
316957; 101333; -1.49; 28.3; -0.637; 0.043; 9.681; 0.014; 0.001; -0.007; 27.770; 8.341; 2.917; -179.9; 3.7; 162.0; 31.7; -48.40; 8.97; 23.9; 12; 2025-05-13; 10:19:03; 51.935535; 4.194968; -127.103333; -24.011658; 8.4; 0.00; 1099.00; 1099.00; 643.00; 1086.00; 1599.00; 1599.00; 599.00; 599.00; 0.00; 0.00; 
317057; 101332; -1.37; 28.3; -0.627; -0.010; 9.709; 0.012; 0.001; -0.007; 27.770; 8.341; 2.917; -179.9; 3.7; 162.0; 31.7; -48.40; 8.97; 23.9; 12; 2025-05-13; 10:19:03; 51.935535; 4.194968; -127.103333; -24.011658; 8.4; 0.00; 1099.00; 1099.00; 642.00; 1088.00; 1600.00; 1599.00; 600.00; 599.00; 0.00; 0.00; 
317157; 101329; -1.17; 28.3; -0.599; 0.129; 9.772; -0.003; 0.002; 0.003; 26.178; 10.293; 6.864; -179.8; 3.7; 161.9; 31.7; -51.55; 9.25; 23.9; 12; 2025-05-13; 10:19:04; 51.935535; 4.194967; -127.160500; -24.011658; 8.4; 0.00; 1099.00; 1099.00; 642.00; 1083.00; 1599.00; 1599.00; 599.00; 600.00; 0.00; 0.00; 
317257; 101329; -1.14; 28.3; -0.589; -0.029; 9.729; 0.016; 0.004; -0.003; 26.178; 10.293; 6.864; -179.8; 3.7; 161.7; 31.7; -48.40; 8.97; 23.9; 12; 2025-05-13; 10:19:04; 51.935535; 4.194967; -127.160500; -24.011658; 8.4; 0.00; 1099.00; 1099.00; 651.00; 1085.00; 1598.00; 1599.00; 599.00; 603.00; 0.00; 0.00; 
317357; 101330; -1.20; 28.3; -0.584; 0.014; 9.690; 0.019; 0.004; -0.011; 26.178; 10.293; 6.864; -179.8; 3.7; 161.6; 31.7; -46.29; 8.77; 23.9; 12; 2025-05-13; 10:19:04; 51.935535; 4.194967; -127.160500; -24.011658; 8.5; 0.00; 1099.00; 1101.00; 643.00; 1084.00; 1600.00; 1599.00; 599.00; 599.00; 0.00; 0.00; 
317457; 101329; -1.14; 28.3; -0.594; 0.101; 9.685; 0.019; 0.003; 0.000; 26.178; 10.293; 6.864; -179.8; 3.7; 161.5; 31.7; -47.35; 8.87; 23.9; 12; 2025-05-13; 10:19:04; 51.935535; 4.194967; -127.160500; -24.011658; 8.5; 0.00; 1099.00; 1099.00; 639.00; 1085.00; 1598.00; 1600.00; 600.00; 599.00; 0.00; 0.00; 
317557; 101333; -1.45; 28.3; -0.651; -0.024; 9.652; 0.010; 0.003; -0.003; 26.178; 10.293; 6.864; -179.8; 3.7; 161.3; 31.7; -47.35; 8.87; 23.9; 12; 2025-05-13; 10:19:04; 51.935535; 4.194967; -127.160500; -24.011658; 8.5; 0.00; 1099.00; 1101.00; 641.00; 1085.00; 1589.00; 1599.00; 600.00; 600.00; 0.00; 0.00; 
317657; 101333; -1.46; 28.3; -0.594; -0.019; 9.738; 0.012; 0.003; -0.011; 28.301; 11.713; 2.403; -179.8; 3.7; 161.1; 31.7; -47.35; 8.87; 23.9; 12; 2025-05-13; 10:19:04; 51.935535; 4.194967; -127.160500; -24.011658; 8.5; 0.00; 1099.00; 1100.00; 637.00; 1085.00; 1602.00; 1599.00; 599.00; 600.00; 0.00; 0.00; 
317757; 101331; -1.30; 28.3; -0.623; 0.067; 9.748; 0.003; 0.004; -0.004; 28.301; 11.713; 2.403; -179.8; 3.7; 161.0; 31.7; -47.35; 8.87; 23.9; 12; 2025-05-13; 10:19:04; 51.935535; 4.194967; -127.160500; -24.011658; 8.5; 0.00; 1099.00; 1100.00; 644.00; 1083.00; 1598.00; 1599.00; 599.00; 599.00; 0.00; 0.00; 
317857; 101331; -1.32; 28.3; -0.685; 0.024; 9.705; 0.005; 0.001; -0.001; 28.301; 11.713; 2.403; -179.8; 3.7; 160.8; 31.7; -48.40; 8.97; 23.9; 12; 2025-05-13; 10:19:04; 51.935535; 4.194967; -127.160500; -24.011658; 8.5; 0.00; 1099.00; 1099.00; 642.00; 1086.00; 1598.00; 1599.00; 599.00; 599.00; 0.00; 0.00; 
317957; 101331; -1.36; 28.3; -0.627; 0.005; 9.762; 0.007; 0.005; -0.007; 28.301; 11.713; 2.403; -179.8; 3.7; 160.6; 31.7; -47.35; 8.87; 23.9; 12; 2025-05-13; 10:19:04; 51.935535; 4.194967; -127.160500; -24.011658; 8.5; 0.00; 1096.00; 1099.00; 639.00; 1086.00; 1599.00; 1600.00; 600.00; 600.00; 0.00; 0.00; 
318057; 101332; -1.39; 28.3; -0.742; 0.014; 9.628; 0.026; 0.003; -0.004; 28.301; 11.713; 2.403; -179.8; 3.8; 160.5; 31.7; -44.19; 8.57; 23.9; 12; 2025-05-13; 10:19:04; 51.935535; 4.194967; -127.160500; -24.011658; 8.5; 0.00; 1099.00; 1101.00; 638.00; 1083.00; 1599.00; 1599.00; 599.00; 599.00; 0.00; 0.00; 
318157; 101329; -1.15; 28.3; -0.632; -0.105; 9.580; 0.009; 0.003; -0.003; 27.947; 9.583; 1.373; -179.8; 3.8; 160.5; 31.7; -48.40; 8.97; 23.9; 12; 2025-05-13; 10:19:05; 51.935535; 4.194968; -127.149040; -24.030249; 8.5; 0.00; 1100.00; 1101.00; 639.00; 1083.00; 1597.00; 1598.00; 599.00; 599.00; 0.00; 0.00; 
318257; 101330; -1.24; 28.3; -0.680; 0.182; 9.733; -0.002; 0.004; -0.004; 27.947; 9.583; 1.373; -179.8; 3.8; 160.5; 31.7; -53.66; 9.44; 23.9; 12; 2025-05-13; 10:19:05; 51.935535; 4.194968; -127.149040; -24.030249; 8.5; 0.00; 1099.00; 1108.00; 684.00; 1085.00; 1599.00; 1599.00; 599.00; 599.00; 0.00; 0.00; 
318357; 101331; -1.35; 28.3; -0.646; 0.096; 9.719; 0.014; 0.005; -0.005; 27.947; 9.583; 1.373; -179.7; 3.8; 160.6; 31.7; -53.66; 9.44; 23.9; 12; 2025-05-13; 10:19:05; 51.935535; 4.194968; -127.149040; -24.030249; 8.6; 0.00; 1097.00; 1090.00; 641.00; 1085.00; 1598.00; 1599.00; 599.00; 599.00; 0.00; 0.00; 
318457; 101331; -1.34; 28.3; -0.608; -0.024; 9.719; 0.027; 0.002; -0.007; 27.947; 9.583; 1.373; -179.8; 3.8; 160.6; 31.7; -56.81; 9.71; 23.9; 12; 2025-05-13; 10:19:05; 51.935535; 4.194968; -127.149040; -24.030249; 8.6; 0.00; 1099.00; 1099.00; 643.00; 1085.00; 1598.00; 1600.00; 600.00; 600.00; 0.00; 0.00; 
318557; 101329; -1.16; 28.3; -0.651; 0.211; 9.805; -0.004; 0.002; -0.007; 27.947; 9.583; 1.373; -179.7; 3.8; 160.6; 31.7; -51.55; 9.25; 23.9; 12; 2025-05-13; 10:19:05; 51.935535; 4.194968; -127.149040; -24.030249; 8.6; 0.00; 1099.00; 1101.00; 643.00; 1084.00; 1600.00; 1599.00; 599.00; 600.00; 0.00; 0.00; 
318657; 101328; -1.09; 28.3; -0.666; 0.144; 9.786; 0.000; 0.003; 0.000; 27.947; 9.583; 1.373; -179.7; 3.8; 160.7; 31.7; -53.66; 9.44; 23.9; 12; 2025-05-13; 10:19:05; 51.935535; 4.194968; -127.149040; -24.030249; 8.6; 0.00; 1100.00; 1099.00; 643.00; 1086.00; 1599.00; 1599.00; 599.00; 599.00; 0.00; 0.00; 
318757; 101329; -1.14; 28.3; -0.613; -0.005; 9.719; 0.021; 0.001; -0.002; 27.947; 9.583; 1.373; -179.7; 3.8; 160.7; 31.7; -51.55; 9.25; 23.9; 12; 2025-05-13; 10:19:05; 51.935535; 4.194968; -127.149040; -24.030249; 8.6; 0.00; 1099.00; 1099.00; 641.00; 1084.00; 1600.00; 1599.00; 599.00; 599.00; 0.00; 0.00; 
318857; 101328; -1.05; 28.3; -0.680; 0.038; 9.705; 0.017; 0.004; -0.009; 27.947; 9.583; 1.373; -179.7; 3.8; 160.7; 31.8; -46.29; 8.77; 23.9; 12; 2025-05-13; 10:19:05; 51.935535; 4.194968; -127.149040; -24.030249; 8.6; 0.00; 1097.00; 1099.00; 640.00; 1084.00; 1598.00; 1600.00; 600.00; 600.00; 0.00; 0.00; 
318957; 101329; -1.11; 28.3; -0.656; 0.043; 9.724; 0.005; 0.000; -0.002; 27.947; 9.583; 1.373; -179.7; 3.8; 160.7; 31.7; -48.40; 8.97; 23.9; 12; 2025-05-13; 10:19:05; 51.935535; 4.194968; -127.149040; -24.030249; 8.6; 0.00; 1099.00; 1099.00; 643.00; 1084.00; 1599.00; 1599.00; 599.00; 599.00; 0.00; 0.00; 
319057; 101328; -1.09; 28.3; -0.646; 0.096; 9.757; 0.003; 0.000; 0.001; 27.947; 9.583; 1.373; -179.7; 3.8; 160.7; 31.7; -51.55; 9.25; 23.9; 12; 2025-05-13; 10:19:05; 51.935535; 4.194968; -127.149040; -24.030249; 8.6; 0.00; 1097.00; 1100.00; 641.00; 1087.00; 1599.00; 1599.00; 599.00; 599.00; 0.00; 0.00; 
319157; 101328; -1.07; 28.3; -0.656; 0.034; 9.743; 0.000; -0.001; -0.006; 27.947; 9.583; 1.373; -179.7; 3.8; 160.8; 31.7; -58.92; 9.89; 23.9; 12; 2025-05-13; 10:19:06; 51.935535; 4.194967; -127.217674; -24.067318; 8.6; 0.00; 1099.00; 1099.00; 643.00; 1088.00; 1600.00; 1599.00; 599.00; 599.00; 0.00; 0.00; 
319257; 101328; -1.07; 28.3; -0.690; 0.148; 9.719; 0.004; 0.003; -0.012; 27.947; 9.583; 1.373; -179.7; 3.8; 160.8; 31.7; -51.55; 9.25; 23.9; 12; 2025-05-13; 10:19:06; 51.935535; 4.194967; -127.217674; -24.067318; 8.6; 0.00; 1094.00; 1099.00; 646.00; 1080.00; 1596.00; 1599.00; 600.00; 599.00; 0.00; 0.00; 
319357; 101330; -1.21; 28.3; -0.608; 0.086; 9.729; 0.014; 0.006; -0.002; 27.947; 9.583; 1.373; -179.7; 3.8; 160.8; 31.7; -56.81; 9.71; 23.9; 12; 2025-05-13; 10:19:06; 51.935535; 4.194967; -127.217674; -24.067318; 8.6; 0.00; 1097.00; 1100.00; 643.00; 1085.00; 1599.00; 1599.00; 600.00; 600.00; 0.00; 0.00; 
319457; 101331; -1.30; 28.3; -0.637; -0.053; 9.705; 0.009; 0.002; -0.004; 27.947; 9.583; 1.373; -179.7; 3.8; 160.8; 31.8; -55.76; 9.62; 23.9; 12; 2025-05-13; 10:19:06; 51.935535; 4.194967; -127.217674; -24.067318; 8.6; 0.00; 1099.00; 1099.00; 643.00; 1086.00; 1599.00; 1599.00; 599.00; 599.00; 0.00; 0.00; 
319557; 101331; -1.29; 28.3; -0.675; 0.139; 9.685; -0.003; 0.007; -0.007; 26.532; 8.518; 4.462; -179.7; 3.8; 160.9; 31.7; -48.40; 8.97; 23.9; 12; 2025-05-13; 10:19:06; 51.935535; 4.194967; -127.217674; -24.067318; 8.6; 0.00; 1100.00; 1100.00; 649.00; 1087.00; 1601.00; 1599.00; 599.00; 599.00; 0.00; 0.00; 
319657; 101330; -1.23; 28.3; -0.603; 0.081; 9.800; 0.010; 0.007; -0.001; 26.532; 8.518; 4.462; -179.7; 3.8; 161.0; 31.8; -53.66; 9.44; 23.9; 12; 2025-05-13; 10:19:06; 51.935535; 4.194967; -127.217674; -24.067318; 8.6; 0.00; 1097.00; 1099.00; 643.00; 1086.00; 1600.00; 1599.00; 599.00; 599.00; 0.00; 0.00; 
319757; 101330; -1.27; 28.3; -0.646; -0.043; 9.676; 0.018; 0.003; -0.006; 26.532; 8.518; 4.462; -179.7; 3.8; 161.0; 31.7; -58.92; 9.89; 23.9; 12; 2025-05-13; 10:19:06; 51.935535; 4.194967; -127.217674; -24.067318; 8.6; 0.00; 1098.00; 1099.00; 643.00; 1085.00; 1599.00; 1600.00; 600.00; 599.00; 0.00; 0.00; 
319857; 101331; -1.30; 28.3; -0.651; 0.019; 9.690; 0.003; 0.004; -0.007; 26.532; 8.518; 4.462; -179.7; 3.8; 161.1; 31.8; -59.97; 9.98; 23.9; 12; 2025-05-13; 10:19:06; 51.935535; 4.194967; -127.217674; -24.067318; 8.6; 0.00; 1099.00; 1099.00; 646.00; 1083.00; 1594.00; 1599.00; 599.00; 599.00; 0.00; 0.00; 
319957; 101328; -1.06; 28.3; -0.627; 0.120; 9.743; -0.004; 0.006; -0.004; 26.532; 8.518; 4.462; -179.7; 3.8; 161.2; 31.7; -53.66; 9.44; 23.9; 12; 2025-05-13; 10:19:06; 51.935535; 4.194967; -127.217674; -24.067318; 8.6; 0.00; 1100.00; 1099.00; 642.00; 1085.00; 1599.00; 1599.00; 599.00; 599.00; 0.00; 0.00; 
320057; 101331; -1.35; 28.3; -0.594; 0.019; 9.738; 0.018; 0.004; -0.009; 27.063; 8.341; 2.574; -179.7; 3.8; 161.2; 31.7; -56.81; 9.71; 23.9; 12; 2025-05-13; 10:19:06; 51.935535; 4.194967; -127.217674; -24.067318; 8.6; 0.00; 1100.00; 1100.00; 644.00; 1087.00; 1599.00; 1599.00; 599.00; 599.00; 0.00; 0.00; 
320157; 101329; -1.14; 28.3; -0.661; -0.034; 9.767; -0.002; 0.003; -0.007; 27.063; 8.341; 2.574; -179.7; 3.8; 161.3; 31.7; -51.55; 9.25; 23.9; 12; 2025-05-13; 10:19:07; 51.935535; 4.194966; -127.274918; -24.122978; 8.6; 0.00; 1099.00; 1100.00; 643.00; 1084.00; 1598.00; 1599.00; 599.00; 599.00; 0.00; 0.00; 
320257; 101330; -1.26; 28.3; -0.623; 0.115; 9.805; -0.001; 0.003; -0.001; 27.063; 8.341; 2.574; -179.7; 3.8; 161.4; 31.7; -53.66; 9.44; 23.9; 12; 2025-05-13; 10:19:07; 51.935535; 4.194966; -127.274918; -24.122978; 8.7; 0.00; 1099.00; 1099.00; 641.00; 1086.00; 1600.00; 1599.00; 600.00; 600.00; 0.00; 0.00; 
320357; 101331; -1.30; 28.3; -0.618; 0.024; 9.772; 0.018; 0.000; -0.004; 27.063; 8.341; 2.574; -179.7; 3.8; 161.5; 31.7; -53.66; 9.44; 23.9; 12; 2025-05-13; 10:19:07; 51.935535; 4.194966; -127.274918; -24.122978; 8.7; 0.00; 1097.00; 1100.00; 643.00; 1086.00; 1598.00; 1599.00; 599.00; 599.00; 0.00; 0.00; 
320457; 101329; -1.19; 28.3; -0.637; 0.038; 9.767; 0.004; 0.004; -0.007; 27.063; 8.341; 2.574; -179.7; 3.8; 161.6; 31.7; -51.55; 9.25; 23.9; 12; 2025-05-13; 10:19:07; 51.935535; 4.194966; -127.274918; -24.122978; 8.7; 0.00; 1099.00; 1100.00; 643.00; 1085.00; 1598.00; 1599.00; 599.00; 599.00; 0.00; 0.00; 
320557; 101330; -1.23; 28.3; -0.627; 0.081; 9.729; 0.002; 0.001; 0.001; 27.063; 8.341; 2.574; -179.7; 3.8; 161.6; 31.7; -55.76; 9.62; 23.9; 12; 2025-05-13; 10:19:07; 51.935535; 4.194966; -127.274918; -24.122978; 8.7; 0.00; 1099.00; 1103.00; 643.00; 1085.00; 1598.00; 1599.00; 599.00; 599.00; 0.00; 0.00; 
320657; 101333; -1.52; 28.3; -0.584; 0.029; 9.762; 0.005; 0.004; -0.004; 27.063; 8.341; 2.574; -179.7; 3.7; 161.7; 31.8; -53.66; 9.44; 23.9; 12; 2025-05-13; 10:19:07; 51.935535; 4.194966; -127.274918; -24.122978; 8.7; 0.00; 1089.00; 1099.00; 643.00; 1085.00; 1598.00; 1600.00; 600.00; 599.00; 0.00; 0.00; 
320757; 101332; -1.42; 28.3; -0.656; 0.144; 9.676; 0.011; 0.002; -0.009; 27.063; 8.341; 2.574; -179.7; 3.7; 161.8; 31.8; -55.76; 9.62; 23.9; 12; 2025-05-13; 10:19:07; 51.935535; 4.194966; -127.274918; -24.122978; 8.7; 0.00; 1097.00; 1099.00; 645.00; 1091.00; 1599.00; 1599.00; 599.00; 599.00; 0.00; 0.00; 
320857; 101333; -1.47; 28.3; -0.656; -0.043; 9.681; 0.011; 0.002; -0.004; 27.063; 8.341; 2.574; -179.7; 3.7; 161.8; 31.8; -56.81; 9.71; 23.9; 12; 2025-05-13; 10:19:07; 51.935535; 4.194966; -127.274918; -24.122978; 8.7; 0.00; 1099.00; 1100.00; 643.00; 1086.00; 1599.00; 1599.00; 599.00; 599.00; 0.00; 0.00; 
320957; 101330; -1.27; 28.3; -0.618; 0.182; 9.709; 0.011; 0.003; -0.002; 27.063; 8.341; 2.574; -179.7; 3.7; 161.9; 31.8; -56.81; 9.71; 23.9; 12; 2025-05-13; 10:19:07; 51.935535; 4.194966; -127.274918; -24.122978; 8.7; 0.00; 1099.00; 1101.00; 644.00; 1085.00; 1599.00; 1599.00; 599.00; 599.00; 0.00; 0.00; 
321057; 101331; -1.33; 28.3; -0.685; 0.053; 9.829; 0.013; 0.003; -0.006; 27.063; 8.341; 2.574; -179.7; 3.8; 161.9; 31.7; -56.81; 9.71; 23.9; 12; 2025-05-13; 10:19:07; 51.935535; 4.194966; -127.274918; -24.122978; 8.7; 0.00; 1099.00; 1101.00; 643.00; 1117.00; 1600.00; 1599.00; 599.00; 599.00; 0.00; 0.00; 
321157; 101330; -1.19; 28.3; -0.642; 0.057; 9.743; 0.011; 0.001; -0.012; 27.063; 8.341; 2.574; -179.7; 3.8; 162.0; 31.7; -62.08; 10.15; 23.9; 12; 2025-05-13; 10:19:08; 51.935535; 4.194967; -127.194817; -24.085909; 8.7; 0.00; 1097.00; 1099.00; 643.00; 1070.00; 1597.00; 1600.00; 600.00; 600.00; 0.00; 0.00; 
321257; 101330; -1.26; 28.3; -0.651; -0.034; 9.810; -0.004; 0.001; -0.005; 27.063; 8.341; 2.574; -179.7; 3.8; 162.0; 31.7; -55.76; 9.62; 23.9; 12; 2025-05-13; 10:19:08; 51.935535; 4.194967; -127.194817; -24.085909; 8.8; 0.00; 1099.00; 1099.00; 645.00; 1084.00; 1600.00; 1599.00; 599.00; 599.00; 0.00; 0.00; 
321357; 101330; -1.22; 28.3; -0.670; 0.096; 9.709; 0.012; 0.002; -0.002; 27.063; 8.341; 2.574; -179.7; 3.8; 162.1; 31.7; -55.76; 9.62; 23.9; 12; 2025-05-13; 10:19:08; 51.935535; 4.194967; -127.194817; -24.085909; 8.8; 0.00; 1097.00; 1102.00; 644.00; 1086.00; 1600.00; 1599.00; 599.00; 599.00; 0.00; 0.00; 
321457; 101329; -1.13; 28.3; -0.632; -0.086; 9.738; 0.014; -0.001; -0.005; 27.063; 8.341; 2.574; -179.7; 3.8; 162.1; 31.7; -53.66; 9.44; 23.9; 12; 2025-05-13; 10:19:08; 51.935535; 4.194967; -127.194817; -24.085909; 8.8; 0.00; 1097.00; 1099.00; 643.00; 1086.00; 1598.00; 1599.00; 599.00; 599.00; 0.00; 0.00; 
321557; 101329; -1.13; 28.3; -0.642; 0.067; 9.753; 0.001; 0.003; -0.003; 27.063; 8.341; 2.574; -179.7; 3.8; 162.2; 31.7; -55.76; 9.62; 23.9; 12; 2025-05-13; 10:19:08; 51.935535; 4.194967; -127.194817; -24.085909; 8.8; 0.00; 1099.00; 1099.00; 647.00; 1083.00; 1599.00; 1600.00; 599.00; 599.00; 0.00; 0.00; 
321657; 101330; -1.20; 28.3; -0.623; 0.048; 9.757; 0.010; 0.003; -0.003; 27.063; 8.341; 2.574; -179.7; 3.8; 162.2; 31.7; -55.76; 9.62; 23.9; 12; 2025-05-13; 10:19:08; 51.935535; 4.194967; -127.194817; -24.085909; 8.8; 0.00; 1098.00; 1099.00; 641.00; 1085.00; 1600.00; 1599.00; 600.00; 599.00; 0.00; 0.00; 
321757; 101330; -1.20; 28.3; -0.623; -0.086; 9.657; 0.014; 0.003; -0.012; 27.063; 8.341; 2.574; -179.8; 3.8; 162.2; 31.7; -55.76; 9.62; 23.9; 12; 2025-05-13; 10:19:08; 51.935535; 4.194967; -127.194817; -24.085909; 8.8; 0.00; 1095.00; 1102.00; 642.00; 1079.00; 1600.00; 1599.00; 599.00; 599.00; 0.00; 0.00; 
321857; 101331; -1.33; 28.3; -0.608; 0.115; 9.748; -0.007; 0.003; -0.002; 27.063; 8.341; 2.574; -179.8; 3.7; 162.3; 31.7; -56.81; 9.71; 23.9; 12; 2025-05-13; 10:19:08; 51.935535; 4.194967; -127.194817; -24.085909; 8.8; 0.00; 1098.00; 1100.00; 644.00; 1088.00; 1599.00; 1599.00; 599.00; 599.00; 0.00; 0.00; 
321957; 101331; -1.32; 28.3; -0.608; 0.038; 9.762; 0.006; 0.004; 0.001; 27.063; 8.341; 2.574; -179.8; 3.7; 162.3; 31.7; -59.97; 9.98; 23.9; 12; 2025-05-13; 10:19:08; 51.935535; 4.194967; -127.194817; -24.085909; 8.8; 0.00; 1098.00; 1100.00; 643.00; 1084.00; 1599.00; 1599.00; 599.00; 599.00; 0.00; 0.00; 
322057; 101330; -1.22; 28.3; -0.651; -0.019; 9.714; 0.007; 0.002; -0.010; 27.063; 8.341; 2.574; -179.8; 3.7; 162.3; 31.7; -58.92; 9.89; 23.9; 12; 2025-05-13; 10:19:08; 51.935535; 4.194967; -127.194817; -24.085909; 8.8; 0.00; 1099.00; 1100.00; 642.00; 1085.00; 1599.00; 1600.00; 600.00; 600.00; 0.00; 0.00; 
322157; 101331; -1.33; 28.3; -0.733; -0.417; 9.901; -0.048; -0.005; -0.007; 27.063; 8.341; 2.574; -179.9; 3.8; 162.4; 31.8; -55.76; 9.62; 23.9; 12; 2025-05-13; 10:19:09; 51.935535; 4.194966; -127.274918; -24.178637; 8.8; 0.00; 1098.00; 1099.00; 643.00; 1085.00; 1599.00; 1599.00; 599.00; 599.00; 0.00; 0.00; 
322257; 101331; -1.34; 28.3; -0.656; 0.148; 9.709; 0.089; -0.002; 0.003; 27.063; 8.341; 2.574; -179.9; 3.8; 162.4; 31.7; -58.92; 9.89; 23.9; 12; 2025-05-13; 10:19:09; 51.935535; 4.194966; -127.274918; -24.178637; 8.7; 0.00; 1099.00; 1100.00; 644.00; 1085.00; 1600.00; 1599.00; 599.00; 599.00; 0.00; 0.00; 
322357; 101331; -1.33; 28.3; -0.603; -0.048; 9.839; 0.039; 0.002; -0.010; 27.063; 8.341; 2.574; -179.9; 3.8; 162.4; 31.7; -58.92; 9.89; 23.9; 12; 2025-05-13; 10:19:09; 51.935535; 4.194966; -127.274918; -24.178637; 8.7; 0.00; 1099.00; 1099.00; 642.00; 1085.00; 1599.00; 1599.00; 599.00; 599.00; 0.00; 0.00; 
322457; 101331; -1.34; 28.3; -0.623; 0.172; 9.820; 0.006; 0.010; -0.010; 26.355; 11.180; 2.574; -179.8; 3.8; 162.2; 31.7; -53.66; 9.44; 23.9; 12; 2025-05-13; 10:19:09; 51.935535; 4.194966; -127.274918; -24.178637; 8.7; 0.00; 1099.00; 1099.00; 644.00; 1080.00; 1600.00; 1600.00; 599.00; 600.00; 0.00; 0.00; 
322557; 101331; -1.35; 28.3; -0.249; -0.503; 9.235; 0.136; 0.004; 0.003; 26.355; 11.180; 2.574; -180.0; 3.6; 161.9; 31.7; -48.40; 8.97; 23.9; 12; 2025-05-13; 10:19:09; 51.935535; 4.194966; -127.274918; -24.178637; 8.7; 0.00; 1098.00; 1099.00; 642.00; 1085.00; 1599.00; 1599.00; 600.00; 600.00; 0.00; 0.00; 
322657; 101327; -0.99; 28.3; -0.153; 0.024; 9.355; -0.001; -0.001; 0.003; 26.355; 11.180; 2.574; -180.0; 3.5; 161.7; 31.7; -48.40; 8.97; 23.9; 12; 2025-05-13; 10:19:09; 51.935535; 4.194966; -127.274918; -24.178637; 8.7; 0.00; 1100.00; 1102.00; 641.00; 1085.00; 1600.00; 1599.00; 599.00; 599.00; 0.00; 0.00; 
322757; 101326; -0.93; 28.3; -0.139; 1.666; 10.892; 0.246; 0.017; 0.000; 26.355; 11.180; 2.574; -179.5; 3.4; 161.5; 31.7; -43.14; 8.46; 23.9; 12; 2025-05-13; 10:19:09; 51.935535; 4.194966; -127.274918; -24.178637; 8.7; 0.00; 1099.00; 1100.00; 646.00; 1087.00; 1598.00; 1599.00; 599.00; 599.00; 0.00; 0.00; 
322857; 101325; -0.86; 28.3; 2.231; 3.472; 15.772; -0.624; -0.036; 0.022; 26.355; 11.180; 2.574; -179.0; 2.8; 161.3; 31.8; -53.66; 9.44; 23.9; 12; 2025-05-13; 10:19:09; 51.935535; 4.194966; -127.274918; -24.178637; 8.7; 0.00; 1099.00; 1099.00; 644.00; 1086.00; 1600.00; 1599.00; 599.00; 599.00; 0.00; 0.00; 
322957; 101324; -0.71; 28.3; 1.006; -1.604; 8.158; 0.376; 0.014; 0.027; 26.886; 9.583; 4.805; -179.5; 2.3; 161.2; 31.7; -51.55; 9.25; 23.9; 12; 2025-05-13; 10:19:09; 51.935535; 4.194966; -127.274918; -24.178637; 8.7; 0.00; 1099.00; 1099.00; 643.00; 1084.00; 1600.00; 1600.00; 600.00; 600.00; 0.00; 0.00; 
323057; 101325; -0.85; 28.3; 2.198; 0.857; 6.559; 0.011; -0.091; 0.023; 26.886; 9.583; 4.805; -179.2; 1.3; 161.2; 31.8; -47.35; 8.87; 23.9; 12; 2025-05-13; 10:19:09; 51.935535; 4.194966; -127.274918; -24.178637; 8.7; 0.00; 1099.00; 1099.00; 643.00; 1086.00; 1599.00; 1599.00; 599.00; 599.00; 0.00; 0.00; 
323157; 101327; -0.98; 28.3; 5.234; -6.824; 11.443; 0.457; 0.141; -0.044; 26.886; 9.583; 4.805; 179.5; 0.2; 161.1; 31.8; -46.29; 8.77; 23.9; 12; 2025-05-13; 10:19:10; 51.935535; 4.194967; -127.183357; -24.234297; 8.7; 0.00; 1100.00; 1099.00; 642.00; 1082.00; 1600.00; 1599.00; 599.00; 599.00; 0.00; 0.00; 
323257; 101327; -0.95; 28.3; 5.794; -2.332; 2.527; 1.065; -0.040; -0.079; 26.886; 9.583; 4.805; 178.6; -2.2; 161.1; 31.8; -39.98; 8.15; 23.9; 12; 2025-05-13; 10:19:10; 51.935535; 4.194967; -127.183357; -24.234297; 8.7; 0.00; 1093.00; 1099.00; 641.00; 1087.00; 1596.00; 1599.00; 599.00; 599.00; 0.00; 0.00; 
323357; 101327; -1.02; 28.3; -3.041; 3.888; 4.653; -0.369; -0.046; -0.124; 26.886; 9.583; 4.805; -179.7; -0.9; 161.0; 31.7; -27.36; 6.74; 23.9; 12; 2025-05-13; 10:19:10; 51.935535; 4.194967; -127.183357; -24.234297; 8.7; 0.00; 1099.00; 1099.00; 646.00; 1085.00; 1599.00; 1600.00; 600.00; 600.00; 0.00; 0.00; 
323457; 101324; -0.71; 28.3; 3.524; 0.737; 7.885; 0.689; 0.118; -0.067; 26.886; 9.583; 4.805; -179.4; -2.0; 161.0; 31.8; -34.72; 7.59; 23.9; 12; 2025-05-13; 10:19:10; 51.935535; 4.194967; -127.183357; -24.234297; 8.7; 0.00; 1098.00; 1101.00; 641.00; 1084.00; 1599.00; 1599.00; 600.00; 590.00; 0.00; 0.00; 
323557; 101326; -0.89; 28.3; 3.587; 9.452; 24.774; -4.012; -0.097; -0.180; 26.886; 9.583; 4.805; -178.8; -2.3; 160.9; 31.8; -33.67; 7.48; 23.9; 12; 2025-05-13; 10:19:10; 51.935535; 4.194967; -127.183357; -24.234297; 8.7; 0.00; 1099.00; 1099.00; 643.00; 1084.00; 1599.00; 1599.00; 599.00; 599.00; 0.00; 0.00; 
323657; 101327; -0.94; 28.3; -0.297; 1.417; 6.472; -0.170; -0.111; -0.062; 26.886; 9.583; 4.805; -178.3; -2.0; 160.8; 31.8; -33.67; 7.48; 23.9; 12; 2025-05-13; 10:19:10; 51.935535; 4.194967; -127.183357; -24.234297; 8.7; 0.00; 1101.00; 1096.00; 643.00; 1083.00; 1598.00; 1599.00; 599.00; 599.00; 0.00; 0.00; 
323757; 101327; -0.70; 28.3; 6.354; 0.958; 8.000; -0.562; -0.095; -0.161; 26.886; 9.583; 4.805; -178.1; -3.7; 160.8; 31.7; -21.04; 5.91; 23.9; 12; 2025-05-13; 10:19:10; 51.935535; 4.194967; -127.183357; -24.234297; 8.7; 0.00; 1099.00; 1100.00; 645.00; 1085.00; 1598.00; 1599.00; 599.00; 599.00; 0.00; 0.00; 
323857; 101325; -0.86; 28.3; 2.279; -5.914; 11.797; 1.317; -0.010; -0.083; 26.886; 9.583; 4.805; -179.4; -4.1; 160.9; 31.7; -37.88; 7.93; 23.9; 12; 2025-05-13; 10:19:10; 51.935535; 4.194967; -127.183357; -24.234297; 8.7; 0.00; 1099.00; 1099.00; 642.00; 1085.00; 1598.00; 1600.00; 599.00; 600.00; 0.00; 0.00; 
323957; 101322; -0.58; 28.3; 5.172; -0.014; 12.176; 0.259; -0.119; -0.140; 26.886; 9.583; 4.805; -179.4; -5.0; 160.8; 31.7; -7.36; 3.50; 23.9; 12; 2025-05-13; 10:19:10; 51.935535; 4.194967; -127.183357; -24.234297; 8.7; 0.00; 1098.00; 1101.00; 643.00; 1086.00; 1599.00; 1599.00; 599.00; 599.00; 0.00; 0.00; 
324057; 101323; -0.67; 28.3; -3.472; 5.990; 14.330; -0.903; -0.058; -0.206; 26.886; 9.583; 4.805; -178.4; -4.2; 160.7; 31.7; -7.36; 3.50; 23.9; 12; 2025-05-13; 10:19:10; 51.935535; 4.194967; -127.183357; -24.234297; 8.7; 0.00; 1099.00; 1100.00; 644.00; 1086.00; 1599.00; 1599.00; 599.00; 599.00; 0.00; 0.00; 
324157; 101323; -0.67; 28.3; 10.156; -6.397; 25.171; -0.830; -0.211; -0.071; 26.886; 9.583; 4.805; -179.2; -5.0; 160.7; 31.8; -7.36; 3.50; 23.9; 12; 2025-05-13; 10:19:11; 51.935532; 4.195001; -124.838440; -24.809481; 8.7; 0.00; 1098.00; 1100.00; 648.00; 1083.00; 1600.00; 1599.00; 599.00; 599.00; 0.00; 0.00; 
324257; 101323; -0.68; 28.3; 0.656; 10.951; 12.836; -0.202; 0.219; -0.060; 26.886; 9.583; 4.805; -177.4; -4.9; 160.5; 31.7; -19.99; 5.76; 23.9; 12; 2025-05-13; 10:19:11; 51.935532; 4.195001; -124.838440; -24.809481; 8.7; 0.00; 1099.00; 1099.00; 641.00; 1084.00; 1599.00; 1600.00; 599.00; 599.00; 0.00; 0.00; 
324357; 101323; -0.65; 28.3; -15.658; 8.873; 24.362; -3.585; 0.007; -0.095; 28.832; 5.147; 3.947; -177.1; -3.3; 160.9; 31.7; -21.04; 5.91; 23.9; 12; 2025-05-13; 10:19:11; 51.935532; 4.195001; -124.838440; -24.809481; 8.7; 0.00; 1099.00; 1099.00; 643.00; 1085.00; 1599.00; 1600.00; 599.00; 599.00; 0.00; 0.00; 
324457; 101323; -0.66; 28.3; 5.483; 9.950; 4.811; -0.984; 0.349; 0.010; 28.832; 5.147; 3.947; -175.0; -4.5; 161.2; 31.8; -17.89; 5.45; 23.9; 12; 2025-05-13; 10:19:11; 51.935532; 4.195001; -124.838440; -24.809481; 8.7; 0.00; 1099.00; 1099.00; 642.00; 1085.00; 1596.00; 1596.00; 595.00; 596.00; 0.00; 0.00; 
324557; 101323; -0.65; 28.3; -4.889; -9.716; 15.025; -0.670; -0.210; -0.042; 28.832; 5.147; 3.947; -176.9; -3.6; 161.8; 31.7; -14.73; 4.95; 23.9; 12; 2025-05-13; 10:19:11; 51.935532; 4.195001; -124.838440; -24.809481; 8.7; 0.00; 1100.00; 1100.00; 644.00; 1085.00; 1599.00; 1600.00; 600.00; 600.00; 0.00; 0.00; 
324657; 101324; -0.71; 28.3; 0.747; -23.837; -11.786; 0.303; -0.123; 0.084; 28.832; 5.147; 3.947; -179.4; -3.8; 162.3; 31.7; 2.10; 1.87; 23.9; 12; 2025-05-13; 10:19:11; 51.935532; 4.195001; -124.838440; -24.809481; 8.7; 0.00; 1099.00; 1100.00; 643.00; 1086.00; 1601.00; 1599.00; 599.00; 599.00; 0.00; 0.00; 
324757; 101322; -0.61; 28.3; -0.881; -7.618; 10.365; 0.937; -0.224; 0.011; 28.832; 5.147; 3.947; 178.9; -3.5; 162.8; 31.7; 0.00; 0.00; 23.9; 12; 2025-05-13; 10:19:11; 51.935532; 4.195001; -124.838440; -24.809481; 8.7; 0.00; 1099.00; 1099.00; 642.00; 1084.00; 1600.00; 1600.00; 599.00; 600.00; 0.00; 0.00; 
324857; 101321; -0.50; 28.3; 16.721; 18.574; -12.705; 1.421; 0.842; -0.055; 27.063; 4.792; 3.261; -179.2; -5.2; 163.0; 31.8; 11.57; 4.38; 23.9; 12; 2025-05-13; 10:19:11; 51.935532; 4.195001; -124.838440; -24.809481; 8.7; 0.00; 1099.00; 1099.00; 643.00; 1086.00; 1599.00; 1599.00; 599.00; 599.00; 0.00; 0.00; 
324957; 101319; -0.32; 28.3; 1.714; 8.423; 5.649; -0.094; 0.393; -0.014; 27.063; 4.792; 3.261; -176.9; -5.5; 163.1; 31.7; 17.89; 5.45; 23.9; 12; 2025-05-13; 10:19:11; 51.935532; 4.195001; -124.838440; -24.809481; 8.7; 0.00; 1100.00; 1100.00; 640.00; 1087.00; 1599.00; 1599.00; 599.00; 599.00; 0.00; 0.00; 
325057; 101319; -0.32; 28.3; 2.006; -9.208; 16.308; 3.621; -0.455; 0.211; 27.063; 4.792; 3.261; -178.2; -5.6; 163.6; 31.7; 42.08; 8.36; 23.9; 12; 2025-05-13; 10:19:11; 51.935532; 4.195001; -124.838440; -24.809481; 8.7; 0.00; 1099.00; 1100.00; 644.00; 1086.00; 1599.00; 1599.00; 599.00; 599.00; 0.00; 0.00; 
325157; 101319; -0.33; 28.3; -4.592; 8.447; -2.439; 0.761; 0.198; 0.103; 27.063; 4.792; 3.261; -175.7; -4.4; 163.7; 31.8; 3.16; 2.29; 23.9; 12; 2025-05-13; 10:19:12; 51.935524; 4.195079; -119.496460; -25.625782; 8.7; 0.00; 1120.00; 1099.00; 643.00; 1085.00; 1599.00; 1599.00; 599.00; 599.00; 0.00; 0.00; 
325257; 101322; -0.58; 28.3; 7.188; 4.171; 12.108; -0.575; 0.042; 0.099; 27.063; 4.792; 3.261; -175.2; -5.6; 164.0; 31.7; 16.83; 5.29; 23.9; 12; 2025-05-13; 10:19:12; 51.935524; 4.195079; -119.496460; -25.625782; 8.5; 0.00; 1099.00; 1099.00; 646.00; 1086.00; 1601.00; 1599.00; 600.00; 600.00; 0.00; 0.00; 
325357; 101321; -0.46; 28.3; 10.956; -14.332; -5.863; 0.692; -0.063; 0.088; 27.063; 4.792; 3.261; -177.3; -7.4; 164.6; 31.7; 27.36; 6.74; 23.9; 12; 2025-05-13; 10:19:12; 51.935524; 4.195079; -119.496460; -25.625782; 8.5; 0.00; 1099.00; 1099.00; 646.00; 1086.00; 1598.00; 1599.00; 599.00; 599.00; 0.00; 0.00; 
325457; 101314; 0.06; 28.3; -10.554; -3.989; 5.069; 1.948; -0.369; 0.086; 27.063; 4.792; 3.261; -178.1; -4.8; 164.9; 31.8; 44.19; 8.57; 23.9; 12; 2025-05-13; 10:19:12; 51.935524; 4.195079; -119.496460; -25.625782; 8.5; 0.00; 1100.00; 1100.00; 649.00; 1085.00; 1600.00; 1599.00; 599.00; 599.00; 0.00; 0.00; 
325557; 101321; -0.52; 28.3; 12.747; 6.431; 9.159; -0.975; 0.259; -0.103; 27.063; 4.792; 3.261; -177.2; -6.8; 165.1; 31.8; 47.35; 8.87; 23.9; 12; 2025-05-13; 10:19:12; 51.935524; 4.195079; -119.496460; -25.625782; 8.5; 0.00; 1099.00; 1099.00; 643.00; 1084.00; 1602.00; 1599.00; 599.00; 599.00; 0.00; 0.00; 
325657; 101319; -0.31; 28.3; 7.575; -7.460; -4.364; 4.179; -0.064; 0.097; 27.063; 4.792; 3.261; -178.7; -8.9; 165.6; 31.8; 3.16; 2.29; 23.9; 12; 2025-05-13; 10:19:12; 51.935524; 4.195079; -119.496460; -25.625782; 8.5; 0.00; 1099.00; 1099.00; 644.00; 1085.00; 1599.00; 1600.00; 600.00; 599.00; 0.00; 0.00; 
325757; 101318; -0.19; 28.3; -2.030; 7.815; -7.285; -0.477; 0.652; -0.228; 27.063; 4.792; 3.261; -176.7; -8.6; 165.4; 31.7; 24.20; 6.34; 23.9; 12; 2025-05-13; 10:19:12; 51.935524; 4.195079; -119.496460; -25.625782; 8.5; 0.00; 1099.00; 1099.00; 645.00; 1085.00; 1600.00; 1599.00; 599.00; 599.00; 0.00; 0.00; 
325857; 101319; -0.35; 28.3; 5.871; -5.674; 5.611; 0.631; 0.115; -0.175; 27.063; 4.792; 3.261; -178.4; -10.0; 165.9; 31.7; 50.50; 9.16; 23.9; 12; 2025-05-13; 10:19:12; 51.935524; 4.195079; -119.496460; -25.625782; 8.5; 0.00; 1100.00; 1099.00; 644.00; 1087.00; 1599.00; 1599.00; 599.00; 599.00; 0.00; 0.00; 
325957; 101318; -0.23; 28.3; -6.431; -0.599; 16.681; 2.647; -0.163; -0.114; 27.063; 4.792; 3.261; -178.4; -8.6; 166.1; 31.8; 34.72; 7.59; 23.9; 12; 2025-05-13; 10:19:12; 51.935524; 4.195079; -119.496460; -25.625782; 8.5; 0.00; 1099.00; 1100.00; 644.00; 1088.00; 1599.00; 1599.00; 599.00; 599.00; 0.00; 0.00; 
326057; 101320; -0.42; 28.3; 7.839; 15.519; 12.329; -1.989; 0.937; -0.228; 27.063; 4.792; 3.261; -176.6; -9.3; 166.0; 31.8; 37.88; 7.93; 23.9; 12; 2025-05-13; 10:19:12; 51.935524; 4.195079; -119.496460; -25.625782; 8.5; 0.00; 1099.00; 1099.00; 646.00; 1085.00; 1600.00; 1600.00; 599.00; 599.00; 0.00; 0.00; 
326157; 101320; -0.41; 28.3; -6.254; 11.353; 17.017; -1.128; 0.176; -0.213; 27.063; 4.792; 3.261; -175.3; -8.0; 165.9; 31.7; 37.88; 7.93; 23.9; 12; 2025-05-13; 10:19:13; 51.935513; 4.195195; -111.569344; -26.868879; 8.5; 0.00; 1095.00; 1103.00; 645.00; 1085.00; 1601.00; 1597.00; 600.00; 600.00; 0.00; 0.00; 
326257; 101324; -0.76; 28.3; -8.198; -30.618; 5.285; 1.226; 0.088; -0.103; 30.424; 7.454; 3.432; -178.0; -7.3; 166.3; 31.7; 64.18; 10.33; 23.9; 12; 2025-05-13; 10:19:13; 51.935513; 4.195195; -111.569344; -26.868879; 8.4; 0.00; 1099.00; 1101.00; 642.00; 1086.00; 1599.00; 1599.00; 599.00; 599.00; 0.00; 0.00; 
326357; 101323; -0.68; 28.3; -7.724; 15.347; 20.512; -5.146; 0.321; -0.225; 30.424; 7.454; 3.432; -176.9; -6.1; 166.1; 31.8; 61.02; 10.07; 23.9; 12; 2025-05-13; 10:19:13; 51.935513; 4.195195; -111.569344; -26.868879; 8.4; 0.00; 1100.00; 1099.00; 646.00; 1086.00; 1597.00; 1599.00; 599.00; 599.00; 0.00; 0.00; 
326457; 101322; -0.53; 28.3; -8.045; -9.807; -4.124; 2.161; 0.034; 0.030; 30.424; 7.454; 3.432; -178.8; -4.5; 166.3; 31.8; 61.02; 10.07; 23.9; 12; 2025-05-13; 10:19:13; 51.935513; 4.195195; -111.569344; -26.868879; 8.4; 0.00; 1093.00; 1099.00; 643.00; 1088.00; 1599.00; 1599.00; 599.00; 599.00; 0.00; 0.00; 
326557; 101322; -0.47; 28.3; 0.608; -16.362; -10.330; 6.045; -0.044; 0.228; 30.424; 7.454; 3.432; 179.4; -4.7; 166.5; 31.7; 64.18; 10.33; 23.9; 12; 2025-05-13; 10:19:13; 51.935513; 4.195195; -111.569344; -26.868879; 8.4; 0.00; 1099.00; 1099.00; 642.00; 1085.00; 1600.00; 1591.00; 599.00; 600.00; 0.00; 0.00; 
326657; 101320; -0.44; 28.3; -1.666; 12.302; 23.069; -0.397; 0.023; 0.002; 30.424; 7.454; 3.432; -179.2; -4.3; 166.4; 31.7; 78.91; 11.45; 23.9; 12; 2025-05-13; 10:19:13; 51.935513; 4.195195; -111.569344; -26.868879; 8.4; 0.00; 1099.00; 1099.00; 642.00; 1085.00; 1599.00; 1599.00; 600.00; 600.00; 0.00; 0.00; 
326757; 101315; 0.01; 28.3; 5.488; 18.503; 19.914; -3.535; 0.246; 0.030; 30.424; 7.454; 3.432; -177.7; -4.7; 166.2; 31.7; 64.18; 10.33; 23.9; 12; 2025-05-13; 10:19:13; 51.935513; 4.195195; -111.569344; -26.868879; 8.4; 0.00; 1100.00; 1099.00; 646.00; 1103.00; 1600.00; 1599.00; 599.00; 599.00; 0.00; 0.00; 
326857; 101317; -0.11; 28.3; 1.197; -11.167; 2.163; 2.150; -0.194; 0.168; 30.424; 7.454; 3.432; 179.7; -5.0; 166.5; 31.7; 86.27; 11.97; 23.9; 12; 2025-05-13; 10:19:13; 51.935513; 4.195195; -111.569344; -26.868879; 8.4; 0.00; 1099.00; 1100.00; 645.00; 1084.00; 1601.00; 1599.00; 599.00; 599.00; 0.00; 0.00; 
326957; 101314; 0.07; 28.3; -1.590; 5.037; 19.234; -3.258; 0.578; -0.018; 30.424; 7.454; 3.432; -179.9; -4.5; 166.4; 31.7; 81.01; 11.60; 23.9; 12; 2025-05-13; 10:19:13; 51.935513; 4.195195; -111.569344; -26.868879; 8.4; 0.00; 1096.00; 1101.00; 645.00; 1085.00; 1599.00; 1599.00; 599.00; 599.00; 0.00; 0.00; 
327057; 101312; 0.26; 28.3; 5.071; -0.125; -0.682; 1.753; 0.156; 0.197; 30.424; 7.454; 3.432; -179.8; -7.3; 166.4; 31.8; 101.00; 12.95; 23.9; 12; 2025-05-13; 10:19:13; 51.935513; 4.195195; -111.569344; -26.868879; 8.4; 0.00; 1098.00; 1099.00; 652.00; 1084.00; 1600.00; 1600.00; 600.00; 600.00; 0.00; 0.00; 
327157; 101318; -0.22; 28.3; 2.509; 4.530; 8.891; 0.423; 0.246; 0.095; 30.424; 7.454; 3.432; -178.5; -7.7; 166.2; 31.7; 64.18; 10.33; 23.9; 12; 2025-05-13; 10:19:14; 51.935501; 4.195340; -101.606155; -27.963478; 8.4; 0.00; 1099.00; 1098.00; 645.00; 1087.00; 1598.00; 1597.00; 599.00; 599.00; 0.00; 0.00; 
327257; 101321; -0.52; 28.3; -14.811; -23.665; -3.559; 6.244; -0.392; 0.258; 25.471; 7.809; 3.432; 179.8; -6.2; 166.4; 31.7; 89.43; 12.19; 23.9; 12; 2025-05-13; 10:19:14; 51.935501; 4.195340; -101.606155; -27.963478; 8.3; 0.00; 1100.00; 1100.00; 645.00; 1086.00; 1598.00; 1599.00; 599.00; 599.00; 0.00; 0.00; 
327357; 101318; -0.24; 28.3; 4.396; 8.691; 2.675; 0.991; 0.308; 0.061; 25.471; 7.809; 3.432; -177.6; -7.3; 165.9; 31.7; 36.82; 7.82; 23.9; 12; 2025-05-13; 10:19:14; 51.935501; 4.195340; -101.606155; -27.963478; 8.3; 0.00; 1099.00; 1099.00; 645.00; 1087.00; 1600.00; 1599.00; 599.00; 599.00; 0.00; 0.00; 
327457; 101320; -0.37; 28.3; 9.395; 7.719; 25.650; -3.433; 0.107; -0.056; 25.471; 7.809; 3.432; -177.2; -7.9; 165.7; 31.7; 106.26; 13.29; 23.9; 12; 2025-05-13; 10:19:14; 51.935501; 4.195340; -101.606155; -27.963478; 8.3; 0.00; 1099.00; 1099.00; 646.00; 1086.00; 1599.00; 1599.00; 599.00; 599.00; 0.00; 0.00; 
327557; 101321; -0.52; 28.3; 6.220; -11.382; 36.300; -1.835; -0.095; 0.111; 25.471; 7.809; 3.432; -178.4; -8.0; 165.7; 31.7; 131.52; 14.78; 23.9; 12; 2025-05-13; 10:19:14; 51.935501; 4.195340; -101.606155; -27.963478; 8.3; 0.00; 1099.00; 1099.00; 642.00; 1086.00; 1598.00; 1599.00; 600.00; 599.00; 0.00; 0.00; 
327657; 101322; -0.58; 28.3; 6.053; 0.254; 6.674; 0.441; 0.068; 0.040; 25.471; 7.809; 3.432; -178.3; -9.6; 165.5; 31.7; 114.68; 13.80; 23.9; 12; 2025-05-13; 10:19:14; 51.935501; 4.195340; -101.606155; -27.963478; 8.3; 0.00; 1099.00; 1099.00; 644.00; 1086.00; 1600.00; 1599.00; 600.00; 599.00; 0.00; 0.00; 
327757; 101327; -0.96; 28.3; 2.653; -0.330; 6.712; 0.030; 0.109; 0.005; 20.872; 8.873; 3.775; -178.3; -10.1; 165.1; 31.7; 185.17; 17.54; 23.9; 12; 2025-05-13; 10:19:14; 51.935501; 4.195340; -101.606155; -27.963478; 8.3; 0.00; 1100.00; 1100.00; 640.00; 1086.00; 1599.00; 1599.00; 599.00; 599.00; 0.00; 0.00; 
327857; 101325; -0.80; 28.3; 5.890; 3.558; 11.577; 0.068; 0.055; 0.009; 20.872; 8.873; 3.775; -177.5; -10.9; 164.6; 31.7; 101.00; 12.95; 23.9; 12; 2025-05-13; 10:19:14; 51.935501; 4.195340; -101.606155; -27.963478; 8.3; 0.00; 1112.00; 1099.00; 645.00; 1085.00; 1599.00; 1599.00; 599.00; 599.00; 0.00; 0.00; 
327957; 101327; -0.98; 28.3; 3.237; 2.859; 7.799; 0.083; 0.036; -0.028; 20.872; 8.873; 3.775; -176.5; -11.4; 164.0; 31.7; 98.90; 12.82; 23.9; 12; 2025-05-13; 10:19:14; 51.935501; 4.195340; -101.606155; -27.963478; 8.3; 0.00; 1099.00; 1099.00; 643.00; 1081.00; 1599.00; 1600.00; 600.00; 599.00; 0.00; 0.00; 
328057; 101328; -1.05; 28.3; 2.701; 0.297; 12.022; -0.235; -0.129; -0.053; 20.872; 8.873; 3.775; -176.5; -11.4; 163.7; 31.7; 137.83; 15.13; 23.9; 12; 2025-05-13; 10:19:14; 51.935501; 4.195340; -101.606155; -27.963478; 8.3; 0.00; 1099.00; 1099.00; 644.00; 1085.00; 1599.00; 1599.00; 599.00; 600.00; 0.00; 0.00; 
328157; 101323; -0.66; 28.3; 5.152; 2.921; 12.937; -0.177; -0.144; -0.045; 20.872; 8.873; 3.775; -176.0; -11.9; 163.2; 31.7; 149.40; 15.75; 23.9; 12; 2025-05-13; 10:19:15; 51.935486; 4.195518; -89.343697; -29.726101; 8.3; 0.00; 1099.00; 1100.00; 644.00; 1086.00; 1598.00; 1597.00; 599.00; 599.00; 0.00; 0.00; 
328257; 101326; -0.93; 28.3; 0.306; 3.309; 16.289; -0.488; -0.315; -0.034; 20.872; 8.873; 3.775; -175.5; -11.3; 162.8; 31.7; 151.51; 15.86; 23.9; 12; 2025-05-13; 10:19:15; 51.935486; 4.195518; -89.343697; -29.726101; 8.1; 0.00; 1099.00; 1099.00; 644.00; 1087.00; 1598.00; 1612.00; 599.00; 599.00; 0.00; 0.00; 
328357; 101327; -0.98; 28.3; 7.595; 1.642; 6.228; -0.345; -0.254; -0.013; 20.872; 8.873; 3.775; -175.1; -13.1; 162.5; 31.7; 144.14; 15.47; 23.9; 12; 2025-05-13; 10:19:15; 51.935486; 4.195518; -89.343697; -29.726101; 8.1; 0.00; 1099.00; 1099.00; 644.00; 1085.00; 1600.00; 1600.00; 600.00; 599.00; 0.00; 0.00; 
328457; 101325; -0.78; 28.3; 0.335; -2.241; 5.041; 0.287; -0.098; 0.030; 20.872; 8.873; 3.775; -176.4; -12.7; 162.5; 31.7; 172.55; 16.93; 23.9; 12; 2025-05-13; 10:19:15; 51.935486; 4.195518; -89.343697; -29.726101; 8.1; 0.00; 1099.00; 1099.00; 643.00; 1085.00; 1599.00; 1599.00; 600.00; 600.00; 0.00; 0.00; 
328557; 101327; -0.98; 28.3; 4.041; -0.441; 13.320; -0.290; 0.089; -0.044; 20.872; 8.873; 3.775; -176.6; -12.8; 162.3; 31.7; 153.61; 15.97; 23.9; 12; 2025-05-13; 10:19:15; 51.935486; 4.195518; -89.343697; -29.726101; 8.1; 0.00; 1099.00; 1099.00; 644.00; 1085.00; 1597.00; 1599.00; 599.00; 599.00; 0.00; 0.00; 
328657; 101327; -0.96; 28.3; 4.966; -0.469; 9.685; -0.146; 0.123; 0.021; 20.872; 8.873; 3.775; -176.8; -13.5; 162.0; 31.7; 154.66; 16.03; 23.9; 12; 2025-05-13; 10:19:15; 51.935486; 4.195518; -89.343697; -29.726101; 8.1; 0.00; 1100.00; 1100.00; 643.00; 1085.00; 1600.00; 1599.00; 599.00; 599.00; 0.00; 0.00; 
328757; 101327; -1.01; 28.3; 10.583; 21.223; 23.122; -4.893; 0.604; -0.069; 20.872; 8.873; 3.775; -175.4; -13.8; 161.3; 31.7; 166.24; 16.62; 23.9; 12; 2025-05-13; 10:19:15; 51.935486; 4.195518; -89.343697; -29.726101; 8.1; 0.00; 1099.00; 1099.00; 653.00; 1085.00; 1600.00; 1599.00; 599.00; 599.00; 0.00; 0.00; 
328857; 101316; -0.06; 28.3; 8.547; 24.680; 16.916; -3.346; 0.358; -0.146; 20.872; 8.873; 3.775; -173.4; -14.0; 160.5; 31.7; 254.61; 20.57; 23.9; 12; 2025-05-13; 10:19:15; 51.935486; 4.195518; -89.343697; -29.726101; 8.1; 0.00; 1097.00; 1099.00; 643.00; 1083.00; 1600.00; 1600.00; 600.00; 599.00; 0.00; 0.00; 
328957; 101318; -0.23; 28.3; 5.411; 3.936; 11.098; 0.208; 0.014; 0.002; 20.872; 8.873; 3.775; -172.7; -14.6; 160.2; 31.7; 223.05; 19.25; 23.9; 12; 2025-05-13; 10:19:15; 51.935486; 4.195518; -89.343697; -29.726101; 8.1; 0.00; 1099.00; 1099.00; 644.00; 1087.00; 1599.00; 1599.00; 599.00; 599.00; 0.00; 0.00; 
329057; 101317; -0.11; 28.3; 3.802; -1.671; 9.709; 0.007; 0.067; -0.045; 20.872; 8.873; 3.775; -173.5; -14.9; 160.2; 31.7; 129.41; 14.66; 23.9; 12; 2025-05-13; 10:19:15; 51.935486; 4.195518; -89.343697; -29.726101; 8.1; 0.00; 1098.00; 1099.00; 644.00; 1087.00; 1599.00; 1599.00; 599.00; 599.00; 0.00; 0.00; 
329157; 101321; -0.45; 28.3; 8.318; -0.062; 8.704; 0.210; 0.028; -0.059; 20.872; 8.873; 3.775; -173.6; -16.2; 160.1; 31.6; 211.48; 18.74; 23.9; 12; 2025-05-13; 10:19:16; 51.935463; 4.195737; -74.370232; -32.082275; 8.1; 0.00; 1099.00; 1100.00; 642.00; 1086.00; 1599.00; 1601.00; 599.00; 599.00; 0.00; 0.00; 
329257; 101318; -0.28; 28.3; 5.689; 8.653; 9.025; -0.704; 0.206; -0.135; 20.872; 8.873; 3.775; -171.9; -16.7; 159.4; 31.7; 219.89; 19.11; 23.9; 12; 2025-05-13; 10:19:16; 51.935463; 4.195737; -74.370232; -32.082275; 7.9; 0.00; 1098.00; 1099.00; 644.00; 1086.00; 1602.00; 1600.00; 599.00; 599.00; 0.00; 0.00; 
329357; 101322; -0.92; 28.3; 0.244; 2.931; 6.817; -0.320; 0.109; -0.105; 20.872; 8.873; 3.775; -171.1; -16.0; 159.0; 31.7; 218.84; 19.07; 23.9; 12; 2025-05-13; 10:19:16; 51.935463; 4.195737; -74.370232; -32.082275; 7.9; 0.00; 1099.00; 1099.00; 643.00; 1085.00; 1599.00; 1599.00; 600.00; 600.00; 0.00; 0.00; 
329457; 101321; -0.48; 28.3; 0.623; 0.541; 19.981; -0.222; -0.096; -0.060; 20.872; 8.873; 3.775; -171.5; -15.3; 159.0; 31.7; 217.79; 19.02; 23.9; 12; 2025-05-13; 10:19:16; 51.935463; 4.195737; -74.370232; -32.082275; 7.9; 0.00; 1099.00; 1099.00; 643.00; 1086.00; 1600.00; 1599.00; 599.00; 599.00; 0.00; 0.00; 
329557; 101317; -0.12; 28.3; 3.591; 0.809; 11.687; 0.551; 0.022; 0.005; 20.872; 8.873; 3.775; -171.6; -15.3; 159.0; 31.7; 183.07; 17.44; 23.9; 12; 2025-05-13; 10:19:16; 51.935463; 4.195737; -74.370232; -32.082275; 7.9; 0.00; 1100.00; 1100.00; 643.00; 1086.00; 1598.00; 1599.00; 599.00; 599.00; 0.00; 0.00; 
329657; 101314; 0.09; 28.3; 5.382; -1.901; 8.048; 0.255; -0.088; -0.010; 22.287; 0.355; 0.000; -172.8; -16.3; 160.2; 31.6; 276.71; 21.44; 23.9; 12; 2025-05-13; 10:19:16; 51.935463; 4.195737; -74.370232; -32.082275; 7.9; 0.00; 1098.00; 1099.00; 643.00; 1087.00; 1598.00; 1599.00; 599.00; 599.00; 0.00; 0.00; 
329757; 101307; 0.66; 28.3; 4.257; 2.892; 12.108; 0.048; -0.072; 0.012; 22.287; 0.355; 0.000; -172.7; -16.5; 161.0; 31.6; 250.40; 20.39; 23.9; 12; 2025-05-13; 10:19:16; 51.935463; 4.195737; -74.370232; -32.082275; 7.9; 0.00; 1099.00; 1099.00; 642.00; 1085.00; 1599.00; 1600.00; 600.00; 600.00; 0.00; 0.00; 
329857; 101312; 0.27; 28.3; 1.082; 2.514; 9.604; 0.192; 0.047; 0.016; 22.287; 0.355; 0.000; -172.6; -16.0; 161.8; 31.7; 276.71; 21.44; 23.9; 12; 2025-05-13; 10:19:16; 51.935463; 4.195737; -74.370232; -32.082275; 7.9; 0.00; 1099.00; 1099.00; 643.00; 1084.00; 1600.00; 1599.00; 600.00; 600.00; 0.00; 0.00; 
329957; 101305; 0.84; 28.3; 2.758; -10.377; -0.145; 1.685; 0.260; 0.117; 22.287; 0.355; 0.000; -175.5; -16.8; 163.5; 31.6; 194.64; 17.98; 23.9; 12; 2025-05-13; 10:19:16; 51.935463; 4.195737; -74.370232; -32.082275; 7.9; 0.00; 1100.00; 1099.00; 644.00; 1084.00; 1599.00; 1599.00; 599.00; 599.00; 0.00; 0.00; 
330057; 101303; 1.04; 28.3; 2.246; -4.688; 5.117; 0.218; 0.055; 0.064; 22.287; 0.355; 0.000; -177.8; -17.1; 164.9; 31.7; 318.79; 23.01; 23.9; 12; 2025-05-13; 10:19:16; 51.935463; 4.195737; -74.370232; -32.082275; 7.9; 0.00; 1099.00; 1100.00; 643.00; 1087.00; 1599.00; 1599.00; 599.00; 599.00; 0.00; 0.00; 
330157; 101302; 1.06; 28.3; 1.786; 6.460; 15.120; 0.077; 0.143; 0.023; 22.287; 0.355; 0.000; -176.9; -16.7; 165.3; 31.7; 333.52; 23.54; 23.9; 12; 2025-05-13; 10:19:17; 51.935444; 4.195989; -57.086163; -34.327244; 7.9; 0.00; 1099.00; 1099.00; 645.00; 1086.00; 1598.00; 1598.00; 599.00; 599.00; 0.00; 0.00; 
330257; 101297; 1.52; 28.3; 3.515; -8.140; 1.224; 0.551; -0.101; 0.032; 22.287; 0.355; 0.000; -179.8; -17.7; 166.8; 31.6; 194.64; 17.98; 23.9; 12; 2025-05-13; 10:19:17; 51.935444; 4.195989; -57.086163; -34.327244; 8.7; 0.00; 1099.00; 1099.00; 643.00; 1085.00; 1598.00; 1599.00; 600.00; 600.00; 0.00; 0.00; 
330357; 101300; 1.30; 28.3; 2.576; -4.506; 1.105; 0.349; 0.063; 0.005; 22.287; 0.355; 0.000; 177.4; -18.8; 168.2; 31.6; 295.65; 22.16; 23.9; 12; 2025-05-13; 10:19:17; 51.935444; 4.195989; -57.086163; -34.327244; 8.7; 0.00; 1099.00; 1099.00; 643.00; 1086.00; 1599.00; 1599.00; 599.00; 599.00; 0.00; 0.00; 
330457; 101299; 1.36; 28.3; 0.852; -5.488; 4.442; 1.292; -0.117; 0.080; 22.287; 0.355; 0.000; 175.2; -18.5; 169.5; 31.6; 346.15; 23.98; 23.9; 12; 2025-05-13; 10:19:17; 51.935444; 4.195989; -57.086163; -34.327244; 8.7; 0.00; 1100.00; 1100.00; 642.00; 1088.00; 1597.00; 1599.00; 599.00; 599.00; 0.00; 0.00; 
330557; 101280; 2.89; 28.3; 3.577; -4.563; 2.144; 0.757; -0.065; 0.088; 22.287; 0.355; 0.000; 172.9; -19.7; 170.6; 31.6; 328.26; 23.35; 23.9; 12; 2025-05-13; 10:19:17; 51.935444; 4.195989; -57.086163; -34.327244; 8.7; 0.00; 1099.00; 1099.00; 645.00; 1085.00; 1599.00; 1599.00; 599.00; 599.00; 0.00; 0.00; 
330657; 101277; 3.16; 28.3; 1.010; 3.850; 13.440; -0.216; -0.056; 0.051; 22.287; 0.355; 0.000; 173.9; -19.0; 170.7; 31.6; 303.01; 22.44; 23.9; 12; 2025-05-13; 10:19:17; 51.935444; 4.195989; -57.086163; -34.327244; 8.7; 0.00; 1099.00; 1099.00; 643.00; 1085.00; 1599.00; 1600.00; 599.00; 599.00; 0.00; 0.00; 
330757; 101275; 3.37; 28.3; 2.552; 0.484; 8.551; -0.197; 0.001; 0.021; 22.287; 0.355; 0.000; 174.3; -18.9; 170.9; 31.6; 303.01; 22.44; 23.9; 12; 2025-05-13; 10:19:17; 51.935444; 4.195989; -57.086163; -34.327244; 8.7; 0.00; 1097.00; 1099.00; 640.00; 1086.00; 1598.00; 1600.00; 600.00; 600.00; 0.00; 0.00; 
330857; 101262; 4.47; 28.3; 2.485; 4.994; 12.865; -0.532; 0.048; -0.043; 22.287; 0.355; 0.000; 175.4; -18.6; 170.9; 31.6; 371.40; 24.84; 23.9; 12; 2025-05-13; 10:19:17; 51.935444; 4.195989; -57.086163; -34.327244; 8.7; 0.00; 1100.00; 1099.00; 643.00; 1085.00; 1601.00; 1599.00; 599.00; 599.00; 0.00; 0.00; 
330957; 101261; 4.49; 28.3; 1.906; 3.740; 13.602; 0.703; 0.083; -0.001; 22.287; 0.355; 0.000; 176.4; -18.1; 171.0; 31.6; 339.83; 23.76; 23.9; 12; 2025-05-13; 10:19:17; 51.935444; 4.195989; -57.086163; -34.327244; 8.7; 0.00; 1100.00; 1100.00; 644.00; 1085.00; 1599.00; 1599.00; 599.00; 599.00; 0.00; 0.00; 
331057; 101271; 3.69; 28.3; 2.878; 0.962; 5.649; -0.270; 0.216; -0.043; 22.287; 0.355; 0.000; 176.9; -18.6; 171.2; 31.6; 339.83; 23.76; 23.9; 12; 2025-05-13; 10:19:17; 51.935444; 4.195989; -57.086163; -34.327244; 8.7; 0.00; 1096.00; 1099.00; 645.00; 1085.00; 1599.00; 1599.00; 599.00; 599.00; 0.00; 0.00; 
331157; 101263; 4.34; 28.3; 4.942; 0.905; 4.164; -0.031; 0.225; -0.022; 22.287; 0.355; 0.000; 177.3; -20.0; 171.4; 31.7; 308.27; 22.63; 23.9; 12; 2025-05-13; 10:19:18; 51.935421; 4.196269; -37.880371; -36.776257; 8.7; 0.00; 1097.00; 1099.00; 641.00; 1086.00; 1595.00; 1599.00; 600.00; 600.00; 0.00; 0.00; 
331257; 101258; 4.75; 28.3; 1.628; -2.600; 5.409; 0.610; 0.202; 0.004; 22.287; 0.355; 0.000; 176.0; -19.8; 172.2; 31.6; 384.02; 25.26; 23.9; 12; 2025-05-13; 10:19:18; 51.935421; 4.196269; -37.880371; -36.776257; 8.7; 0.00; 1092.00; 1099.00; 643.00; 1080.00; 1598.00; 1598.00; 600.00; 600.00; 0.00; 0.00; 
331357; 101252; 5.27; 28.3; 0.239; -3.663; 5.266; 0.493; 0.246; 0.020; 22.287; 0.355; 0.000; 174.4; -19.1; 173.0; 31.6; 321.95; 23.13; 23.9; 12; 2025-05-13; 10:19:18; 51.935421; 4.196269; -37.880371; -36.776257; 11.8; 0.00; 1099.00; 1100.00; 644.00; 1086.00; 1600.00; 1599.00; 599.00; 599.00; 0.00; 0.00; 
331457; 101255; 5.01; 28.3; 0.354; 2.107; 9.465; -0.414; 0.144; -0.034; 22.287; 0.355; 0.000; 175.2; -18.3; 173.0; 31.6; 241.99; 20.05; 23.9; 12; 2025-05-13; 10:19:18; 51.935421; 4.196269; -37.880371; -36.776257; 11.8; 0.00; 1099.00; 1099.00; 642.00; 1084.00; 1598.00; 1599.00; 599.00; 599.00; 0.00; 0.00; 
331557; 101253; 5.21; 28.3; 5.684; 0.287; 3.920; 0.209; 0.238; -0.014; 22.287; 0.355; 0.000; 175.4; -20.0; 173.2; 31.6; 433.47; 26.83; 23.9; 12; 2025-05-13; 10:19:18; 51.935421; 4.196269; -37.880371; -36.776257; 11.8; 0.00; 1099.00; 1099.00; 644.00; 1085.00; 1600.00; 1600.00; 609.00; 600.00; 0.00; 0.00; 
331657; 101242; 6.08; 28.3; 0.244; -0.690; 4.911; 1.105; 0.107; 0.026; 22.287; 0.355; 0.000; 175.3; -19.1; 173.6; 31.6; 326.16; 23.28; 23.9; 12; 2025-05-13; 10:19:18; 51.935421; 4.196269; -37.880371; -36.776257; 11.8; 0.00; 1099.00; 1099.00; 643.00; 1085.00; 1598.00; 1600.00; 600.00; 600.00; 0.00; 0.00; 
331757; 101236; 6.57; 28.3; 0.934; -2.112; 6.472; 0.826; -0.025; -0.034; 22.287; 0.355; 0.000; 174.6; -18.6; 174.1; 31.6; 377.71; 25.05; 23.9; 12; 2025-05-13; 10:19:18; 51.935421; 4.196269; -37.880371; -36.776257; 11.8; 0.00; 1099.00; 1099.00; 643.00; 1087.00; 1598.00; 1599.00; 599.00; 600.00; 0.00; 0.00; 
331857; 101222; 7.75; 28.3; 0.867; 0.881; 9.015; -0.216; -0.023; -0.071; 22.287; 0.355; 0.000; 175.0; -18.0; 174.1; 31.6; 328.26; 23.35; 23.9; 12; 2025-05-13; 10:19:18; 51.935421; 4.196269; -37.880371; -36.776257; 11.8; 0.00; 1100.00; 1100.00; 639.00; 1086.00; 1599.00; 1599.00; 599.00; 599.00; 0.00; 0.00; 
331957; 101215; 8.32; 28.3; 3.893; -8.777; 3.920; 1.059; -0.039; 0.014; 22.287; 0.355; 0.000; 172.6; -18.6; 175.2; 31.6; 339.83; 23.76; 23.9; 12; 2025-05-13; 10:19:18; 51.935421; 4.196269; -37.880371; -36.776257; 11.8; 0.00; 1099.00; 1099.00; 643.00; 1086.00; 1599.00; 1599.00; 599.00; 599.00; 0.00; 0.00; 
332057; 101211; 8.64; 28.2; 1.475; 2.279; 12.563; 0.134; 0.025; -0.056; 22.287; 0.355; 0.000; 173.5; -18.0; 175.1; 31.6; 333.52; 23.54; 23.9; 12; 2025-05-13; 10:19:18; 51.935421; 4.196269; -37.880371; -36.776257; 11.8; 0.00; 1099.00; 1099.00; 642.00; 1084.00; 1599.00; 1600.00; 600.00; 600.00; 0.00; 0.00; 
332157; 101205; 9.14; 28.2; 0.742; 7.192; 12.243; -0.501; 0.182; -0.045; 22.287; 0.355; 0.000; 175.2; -17.5; 174.7; 31.6; 340.89; 23.80; 23.9; 12; 2025-05-13; 10:19:19; 51.935402; 4.196549; -18.628799; -38.965565; 11.8; 0.00; 1099.00; 1099.00; 643.00; 1085.00; 1599.00; 1598.00; 599.00; 599.00; 0.00; 0.00; 
332257; 101206; 9.10; 28.2; 2.945; 4.089; 9.700; -0.154; -0.001; 0.019; 22.287; 0.355; 0.000; 176.4; -17.5; 174.5; 31.5; 406.12; 25.97; 23.9; 12; 2025-05-13; 10:19:19; 51.935402; 4.196549; -18.628799; -38.965565; 16.5; 0.00; 1100.00; 1099.00; 643.00; 1081.00; 1598.00; 1598.00; 599.00; 599.00; 0.00; 0.00; 
332357; 101196; 9.96; 28.2; 1.523; -4.051; 6.065; 1.139; -0.100; 0.040; 22.287; 0.355; 0.000; 175.0; -17.3; 175.2; 31.6; 323.00; 23.16; 23.9; 12; 2025-05-13; 10:19:19; 51.935402; 4.196549; -18.628799; -38.965565; 16.5; 0.00; 1099.00; 1100.00; 644.00; 1085.00; 1599.00; 1599.00; 599.00; 599.00; 0.00; 0.00; 
332457; 101192; 10.27; 28.2; 0.699; -10.161; -2.765; 2.094; -0.147; 0.081; 22.287; 0.355; 0.000; 172.2; -17.6; 176.3; 31.6; 191.49; 17.83; 23.9; 12; 2025-05-13; 10:19:19; 51.935402; 4.196549; -18.628799; -38.965565; 16.5; 0.00; 1099.00; 1099.00; 643.00; 1086.00; 1600.00; 1599.00; 599.00; 599.00; 0.00; 0.00; 
332557; 101174; 11.72; 28.2; 0.991; -2.571; 12.793; 0.855; -0.081; 0.019; 15.566; 3.904; -0.343; 172.2; -17.0; 175.8; 31.6; 313.53; 22.82; 23.9; 12; 2025-05-13; 10:19:19; 51.935402; 4.196549; -18.628799; -38.965565; 16.5; 0.00; 1099.00; 1099.00; 643.00; 1084.00; 1598.00; 1600.00; 600.00; 600.00; 0.00; 0.00; 
332657; 101169; 12.21; 28.2; 2.682; 6.570; 11.021; -1.169; 0.009; -0.056; 15.566; 3.904; -0.343; 174.1; -16.8; 174.8; 31.6; 342.99; 23.87; 23.9; 12; 2025-05-13; 10:19:19; 51.935402; 4.196549; -18.628799; -38.965565; 16.5; 0.00; 1099.00; 1099.00; 644.00; 1086.00; 1601.00; 1599.00; 599.00; 600.00; 0.00; 0.00; 
332757; 101156; 13.27; 28.2; 0.737; -9.151; 6.563; 1.530; -0.091; -0.016; 15.566; 3.904; -0.343; 172.1; -16.5; 175.0; 31.6; 348.25; 24.05; 23.9; 12; 2025-05-13; 10:19:19; 51.935402; 4.196549; -18.628799; -38.965565; 16.5; 0.00; 1100.00; 1100.00; 642.00; 1082.00; 1600.00; 1599.00; 599.00; 599.00; 0.00; 0.00; 
332857; 101159; 12.98; 28.2; 2.648; -0.201; 9.671; 0.031; 0.109; -0.085; 15.566; 3.904; -0.343; 172.5; -16.4; 174.4; 31.6; 333.52; 23.54; 23.9; 12; 2025-05-13; 10:19:19; 51.935402; 4.196549; -18.628799; -38.965565; 16.5; 0.00; 1097.00; 1099.00; 643.00; 1080.00; 1599.00; 1599.00; 599.00; 600.00; 0.00; 0.00; 
332957; 101157; 13.21; 28.2; 3.026; -6.206; -1.639; 2.049; 0.210; -0.033; 15.566; 3.904; -0.343; 170.1; -17.6; 174.7; 31.5; 353.51; 24.23; 23.9; 12; 2025-05-13; 10:19:19; 51.935402; 4.196549; -18.628799; -38.965565; 16.5; 0.00; 1099.00; 1099.00; 643.00; 1084.00; 1600.00; 1600.00; 600.00; 600.00; 0.00; 0.00; 
333057; 101154; 13.40; 28.2; -0.800; -3.194; 2.948; 1.402; 0.144; -0.051; 15.742; 4.437; 1.201; 168.7; -16.4; 174.7; 31.6; 273.55; 21.32; 23.9; 12; 2025-05-13; 10:19:19; 51.935402; 4.196549; -18.628799; -38.965565; 16.5; 0.00; 1099.00; 1099.00; 641.00; 1084.00; 1599.00; 1599.00; 600.00; 600.00; 0.00; 0.00; 
333157; 101147; 14.01; 28.2; -2.102; -0.321; 13.128; 0.437; -0.031; -0.056; 15.742; 4.437; 1.201; 169.4; -15.1; 174.0; 31.5; 340.89; 23.80; 23.9; 12; 2025-05-13; 10:19:20; 51.935387; 4.196832; 0.828669; -40.765144; 16.5; 0.00; 1095.00; 1099.00; 641.00; 1080.00; 1595.00; 1599.00; 600.00; 599.00; 0.00; 0.00; 
333257; 101142; 14.40; 28.2; 1.848; 9.591; 14.766; -0.358; -0.031; -0.086; 15.742; 4.437; 1.201; 171.5; -14.8; 172.9; 31.5; 371.40; 24.84; 23.9; 12; 2025-05-13; 10:19:20; 51.935387; 4.196832; 0.828669; -40.765144; 22.2; 0.00; 1096.00; 1100.00; 644.00; 1088.00; 1598.00; 1620.00; 599.00; 599.00; 0.00; 0.00; 
333357; 101138; 14.75; 28.2; 2.126; 1.642; 9.068; -0.722; -0.094; -0.056; 15.742; 4.437; 1.201; 172.5; -14.8; 172.2; 31.5; 355.62; 24.30; 23.9; 12; 2025-05-13; 10:19:20; 51.935387; 4.196832; 0.828669; -40.765144; 22.2; 0.00; 1096.00; 1099.00; 642.00; 1080.00; 1599.00; 1599.00; 599.00; 599.00; 0.00; 0.00; 
333457; 101134; 15.42; 28.2; 3.347; 2.026; 6.630; 0.714; -0.114; 0.063; 15.742; 4.437; 1.201; 173.8; -15.3; 171.4; 31.5; 348.25; 24.05; 23.9; 12; 2025-05-13; 10:19:20; 51.935387; 4.196832; 0.828669; -40.765144; 22.2; 0.00; 1097.00; 1099.00; 646.00; 1084.00; 1600.00; 1599.00; 600.00; 600.00; 0.00; 0.00; 
333557; 101122; 16.11; 28.2; 0.781; 9.601; 15.470; -1.288; 0.043; 0.000; 15.742; 4.437; 1.201; 175.6; -14.8; 170.6; 31.5; 360.88; 24.48; 23.9; 12; 2025-05-13; 10:19:20; 51.935387; 4.196832; 0.828669; -40.765144; 22.2; 0.00; 1099.00; 1099.00; 647.00; 1080.00; 1600.00; 1599.00; 599.00; 599.00; 0.00; 0.00; 
333657; 101110; 17.06; 28.2; 0.077; -7.719; 3.523; 1.163; -0.049; 0.135; 15.742; 4.437; 1.201; 173.2; -14.5; 170.9; 31.5; 368.24; 24.73; 23.9; 12; 2025-05-13; 10:19:20; 51.935387; 4.196832; 0.828669; -40.765144; 22.2; 0.00; 1100.00; 1100.00; 642.00; 1081.00; 1599.00; 1599.00; 599.00; 599.00; 0.00; 0.00; 
333757; 101099; 17.99; 28.2; -1.954; -0.053; 12.937; -0.244; -0.125; 0.103; 15.742; 4.437; 1.201; 173.7; -13.3; 170.4; 31.5; 332.47; 23.50; 23.9; 12; 2025-05-13; 10:19:20; 51.935387; 4.196832; 0.828669; -40.765144; 22.2; 0.00; 1098.00; 1105.00; 659.00; 1086.00; 1600.00; 1599.00; 599.00; 599.00; 0.00; 0.00; 
333857; 101085; 19.14; 28.2; 2.504; -1.891; 9.326; 0.291; 0.007; 0.142; 15.742; 4.437; 1.201; 173.5; -13.4; 170.1; 31.5; 325.11; 23.24; 23.9; 12; 2025-05-13; 10:19:20; 51.935387; 4.196832; 0.828669; -40.765144; 22.2; 0.00; 1099.00; 1078.00; 644.00; 1080.00; 1599.00; 1600.00; 600.00; 599.00; 0.00; 0.00; 
333957; 101082; 19.47; 28.2; 0.962; 12.263; 22.768; -1.844; 0.028; 0.011; 15.742; 4.437; 1.201; 175.1; -12.9; 169.4; 31.5; 318.79; 23.01; 23.9; 12; 2025-05-13; 10:19:20; 51.935387; 4.196832; 0.828669; -40.765144; 22.2; 0.00; 1099.00; 1099.00; 645.00; 1086.00; 1599.00; 1599.00; 600.00; 600.00; 0.00; 0.00; 
334057; 101082; 19.47; 28.2; 5.478; 7.456; 9.355; 0.521; 0.265; 0.056; 15.742; 4.437; 1.201; 177.1; -13.6; 168.7; 31.5; 147.30; 15.64; 23.9; 12; 2025-05-13; 10:19:20; 51.935387; 4.196832; 0.828669; -40.765144; 22.2; 0.00; 1093.00; 1099.00; 643.00; 1081.00; 1599.00; 1599.00; 599.00; 599.00; 0.00; 0.00; 
334157; 101078; 19.78; 28.2; -0.254; 4.841; 13.933; -0.555; 0.261; -0.017; 15.742; 4.437; 1.201; 178.2; -12.9; 168.2; 31.5; 380.87; 25.15; 23.9; 12; 2025-05-13; 10:19:21; 51.935371; 4.197107; 19.691364; -42.453518; 22.2; 0.00; 1100.00; 1100.00; 645.00; 1110.00; 1598.00; 1598.00; 599.00; 599.00; 0.00; 0.00; 
334257; 101066; 20.74; 28.2; -2.117; -3.606; 5.050; 0.803; 0.109; 0.042; 15.742; 4.437; 1.201; 176.8; -11.4; 168.3; 31.5; 247.25; 20.27; 23.9; 12; 2025-05-13; 10:19:21; 51.935371; 4.197107; 19.691364; -42.453518; 28.7; 0.00; 1098.00; 1099.00; 646.00; 1059.00; 1600.00; 1603.00; 599.00; 599.00; 0.00; 0.00; 
334357; 101063; 20.98; 28.2; -0.263; 13.058; 18.922; -1.043; 0.046; -0.102; 15.742; 4.437; 1.201; 178.5; -10.9; 167.7; 31.5; 348.25; 24.05; 23.9; 12; 2025-05-13; 10:19:21; 51.935371; 4.197107; 19.691364; -42.453518; 28.7; 0.00; 1099.00; 1099.00; 643.00; 1084.00; 1600.00; 1599.00; 599.00; 599.00; 0.00; 0.00; 
334457; 101053; 21.88; 28.2; 2.868; -3.069; 1.076; 1.245; 0.163; -0.040; 10.436; 3.017; -0.515; 176.6; -12.6; 167.9; 31.5; 299.85; 22.32; 23.9; 12; 2025-05-13; 10:19:21; 51.935371; 4.197107; 19.691364; -42.453518; 28.7; 0.00; 1099.00; 1099.00; 643.00; 1085.00; 1598.00; 1599.00; 599.00; 600.00; 0.00; 0.00; 
334557; 101048; 22.28; 28.2; -0.029; 2.672; 13.885; -0.194; 0.182; -0.089; 10.436; 3.017; -0.515; 177.4; -12.0; 167.6; 31.4; 263.03; 20.90; 23.1; 12; 2025-05-13; 10:19:21; 51.935371; 4.197107; 19.691364; -42.453518; 28.7; 0.00; 1100.00; 1099.00; 646.00; 1084.00; 1600.00; 1598.00; 599.00; 599.00; 0.00; 0.00; 
334657; 101039; 23.00; 28.2; -0.445; 0.915; 3.259; 0.438; 0.135; -0.077; 10.436; 3.017; -0.515; 178.3; -11.0; 167.2; 31.4; 306.17; 22.55; 23.1; 12; 2025-05-13; 10:19:21; 51.935371; 4.197107; 19.691364; -42.453518; 28.7; 0.00; 1092.00; 1100.00; 642.00; 1084.00; 1599.00; 1599.00; 599.00; 599.00; 0.00; 0.00; 
334757; 101036; 23.26; 28.2; 2.102; -1.571; 6.180; 0.707; 0.103; -0.072; 10.436; 3.017; -0.515; 177.8; -11.4; 167.1; 31.4; 335.63; 23.61; 23.1; 12; 2025-05-13; 10:19:21; 51.935371; 4.197107; 19.691364; -42.453518; 28.7; 0.00; 1099.00; 1099.00; 643.00; 1084.00; 1598.00; 1599.00; 599.00; 599.00; 0.00; 0.00; 
334857; 101024; 24.26; 28.2; 0.115; -3.979; 11.117; 0.373; -0.053; -0.039; 10.436; 3.017; -0.515; 177.0; -10.9; 167.1; 31.4; 330.37; 23.43; 23.1; 12; 2025-05-13; 10:19:21; 51.935371; 4.197107; 19.691364; -42.453518; 28.7; 0.00; 1099.00; 1099.00; 643.00; 1085.00; 1600.00; 1600.00; 600.00; 599.00; 0.00; 0.00; 
334957; 101006; 25.81; 28.2; 2.682; 1.403; 8.704; -0.647; 0.014; -0.033; 10.436; 3.017; -0.515; 177.5; -11.2; 166.8; 31.4; 330.37; 23.43; 23.1; 12; 2025-05-13; 10:19:21; 51.935371; 4.197107; 19.691364; -42.453518; 28.7; 0.00; 1097.00; 1099.00; 643.00; 1087.00; 1599.00; 1599.00; 599.00; 599.00; 0.00; 0.00; 
335057; 100997; 26.57; 28.2; 3.591; -2.705; 10.504; 0.427; -0.046; 0.022; 10.436; 3.017; -0.515; 177.0; -11.6; 166.8; 31.4; 305.11; 22.51; 23.1; 12; 2025-05-13; 10:19:21; 51.935371; 4.197107; 19.691364; -42.453518; 28.7; 0.00; 1100.00; 1100.00; 643.00; 1085.00; 1599.00; 1599.00; 599.00; 599.00; 0.00; 0.00; 
335157; 100983; 27.69; 28.1; 1.173; 8.533; 17.381; -0.283; -0.103; 0.056; 10.436; 3.017; -0.515; 178.4; -11.2; 166.4; 31.4; 310.38; 22.71; 23.1; 12; 2025-05-13; 10:19:22; 51.935360; 4.197366; 37.467323; -43.640957; 28.7; 0.00; 1095.00; 1099.00; 639.00; 1085.00; 1595.00; 1599.00; 599.00; 599.00; 0.00; 0.00; 
335257; 100978; 28.15; 28.1; 1.058; -4.415; 7.507; 0.918; -0.042; 0.109; 10.436; 3.017; -0.515; 177.1; -11.1; 166.5; 31.4; 308.27; 22.63; 23.1; 12; 2025-05-13; 10:19:22; 51.935360; 4.197366; 37.467323; -43.640957; 36.9; 0.00; 1097.00; 1099.00; 644.00; 1083.00; 1600.00; 1599.00; 600.00; 600.00; 0.00; 0.00; 
335357; 100965; 29.18; 28.1; 4.061; 8.696; 19.981; -0.803; 0.009; 0.054; 10.436; 3.017; -0.515; 178.4; -11.1; 166.2; 31.4; 270.40; 21.19; 23.1; 12; 2025-05-13; 10:19:22; 51.935360; 4.197366; 37.467323; -43.640957; 36.9; 0.00; 1099.00; 1099.00; 642.00; 1080.00; 1599.00; 1600.00; 600.00; 599.00; 0.00; 0.00; 
335457; 100955; 30.07; 28.1; -0.091; 6.991; 16.701; -0.800; 0.000; 0.052; 12.028; 5.679; -0.343; 179.5; -10.5; 165.4; 31.4; 315.64; 22.90; 23.1; 12; 2025-05-13; 10:19:22; 51.935360; 4.197366; 37.467323; -43.640957; 36.9; 0.00; 1099.00; 1099.00; 643.00; 1081.00; 1599.00; 1599.00; 599.00; 599.00; 0.00; 0.00; 
335557; 100941; 31.18; 28.1; 3.687; -8.940; 3.863; 1.222; -0.007; 0.164; 12.028; 5.679; -0.343; 177.2; -11.3; 165.3; 31.4; 286.18; 21.80; 23.1; 12; 2025-05-13; 10:19:22; 51.935360; 4.197366; 37.467323; -43.640957; 36.9; 0.00; 1100.00; 1100.00; 644.00; 1083.00; 1600.00; 1599.00; 599.00; 599.00; 0.00; 0.00; 
335657; 100938; 31.49; 28.1; -0.168; -0.627; 11.903; 0.250; 0.031; 0.121; 12.028; 5.679; -0.343; 177.3; -10.7; 164.8; 31.4; 277.76; 21.48; 23.1; 12; 2025-05-13; 10:19:22; 51.935360; 4.197366; 37.467323; -43.640957; 36.9; 0.00; 1099.00; 1099.00; 643.00; 1081.00; 1600.00; 1599.00; 599.00; 598.00; 0.00; 0.00; 
335757; 100927; 32.35; 28.1; 1.164; -0.168; 11.989; 0.031; 0.005; 0.089; 12.028; 5.679; -0.343; 177.5; -10.4; 164.3; 31.4; 368.24; 24.73; 23.1; 12; 2025-05-13; 10:19:22; 51.935360; 4.197366; 37.467323; -43.640957; 36.9; 0.00; 1098.00; 1099.00; 636.00; 1080.00; 1605.00; 1600.00; 600.00; 600.00; 0.00; 0.00; 
335857; 100922; 32.77; 28.1; 3.338; -3.840; 5.802; 0.592; 0.061; 0.092; 12.028; 5.679; -0.343; 176.2; -11.2; 164.1; 31.4; 292.49; 22.04; 23.1; 12; 2025-05-13; 10:19:22; 51.935360; 4.197366; 37.467323; -43.640957; 36.9; 0.00; 1099.00; 1099.00; 644.00; 1080.00; 1600.00; 1599.00; 599.00; 599.00; 0.00; 0.00; 
335957; 100912; 33.61; 28.1; 2.193; 3.180; 13.545; 0.089; 0.022; 0.025; 11.320; 10.648; 0.686; 177.2; -11.0; 162.6; 31.4; 335.63; 23.61; 23.1; 12; 2025-05-13; 10:19:22; 51.935360; 4.197366; 37.467323; -43.640957; 36.9; 0.00; 1100.00; 1100.00; 644.00; 1086.00; 1599.00; 1599.00; 599.00; 599.00; 0.00; 0.00; 
336057; 100906; 34.15; 28.1; 0.273; 2.227; 13.119; -0.705; -0.072; 0.019; 11.320; 10.648; 0.686; 178.0; -10.4; 161.2; 31.4; 329.31; 23.39; 23.1; 12; 2025-05-13; 10:19:22; 51.935360; 4.197366; 37.467323; -43.640957; 36.9; 0.00; 1099.00; 1099.00; 644.00; 1082.00; 1599.00; 1599.00; 599.00; 599.00; 0.00; 0.00; 
336157; 100892; 35.32; 28.1; 1.298; 4.602; 14.225; -0.149; 0.005; 0.035; 11.320; 10.648; 0.686; 179.1; -10.1; 159.8; 31.4; 273.55; 21.32; 23.1; 12; 2025-05-13; 10:19:23; 51.935349; 4.197608; 54.030743; -45.162239; 36.9; 0.00; 1099.00; 1099.00; 643.00; 1081.00; 1601.00; 1601.00; 599.00; 599.00; 0.00; 0.00; 
336257; 100883; 36.04; 28.1; 0.991; 0.685; 10.207; -0.727; -0.059; 0.029; 11.320; 10.648; 0.686; 179.4; -9.8; 158.6; 31.3; 271.45; 21.23; 23.1; 12; 2025-05-13; 10:19:23; 51.935349; 4.197608; 54.030743; -45.162239; 44.6; 0.00; 1099.00; 1088.00; 643.00; 1081.00; 1601.00; 1599.00; 600.00; 600.00; 0.00; 0.00; 
336357; 100877; 36.52; 28.1; 2.064; -2.289; 6.841; 0.206; 0.126; 0.077; 11.320; 10.648; 0.686; 178.7; -10.0; 157.6; 31.4; 273.55; 21.32; 23.1; 12; 2025-05-13; 10:19:23; 51.935349; 4.197608; 54.030743; -45.162239; 44.6; 0.00; 1099.00; 1099.00; 643.00; 1085.00; 1599.00; 1599.00; 599.00; 599.00; 0.00; 0.00; 
336457; 100865; 37.53; 28.1; 2.093; 1.810; 12.477; 0.298; -0.033; 0.134; 11.320; 10.648; 0.686; 179.4; -9.9; 156.5; 31.4; 273.55; 21.32; 23.1; 12; 2025-05-13; 10:19:23; 51.935349; 4.197608; 54.030743; -45.162239; 44.6; 0.00; 1099.00; 1100.00; 641.00; 1085.00; 1598.00; 1599.00; 599.00; 599.00; 0.00; 0.00; 
336557; 100860; 38.00; 28.1; 0.594; 6.833; 15.633; -0.927; -0.051; 0.088; 11.320; 10.648; 0.686; -179.4; -9.4; 155.3; 31.4; 254.61; 20.57; 23.1; 12; 2025-05-13; 10:19:23; 51.935349; 4.197608; 54.030743; -45.162239; 44.6; 0.00; 1099.00; 1099.00; 643.00; 1084.00; 1599.00; 1599.00; 599.00; 599.00; 0.00; 0.00; 
336657; 100845; 39.25; 28.1; 0.594; 0.062; 13.009; 0.065; -0.028; 0.078; 11.320; 10.648; 0.686; -179.3; -9.0; 154.4; 31.4; 279.86; 21.56; 23.1; 12; 2025-05-13; 10:19:23; 51.935349; 4.197608; 54.030743; -45.162239; 44.6; 0.00; 1099.00; 1099.00; 645.00; 1084.00; 1599.00; 1600.00; 600.00; 599.00; 0.00; 0.00; 
336757; 100835; 40.06; 28.1; 1.144; 3.462; 12.027; -0.510; -0.032; 0.053; 11.320; 10.648; 0.686; -178.4; -8.7; 153.4; 31.4; 276.71; 21.44; 23.1; 12; 2025-05-13; 10:19:23; 51.935349; 4.197608; 54.030743; -45.162239; 44.6; 0.00; 1095.00; 1099.00; 644.00; 1085.00; 1599.00; 1599.00; 600.00; 600.00; 0.00; 0.00; 
336857; 100827; 40.76; 28.1; 1.896; 5.732; 14.689; -1.061; 0.075; 0.012; 11.320; 10.648; 0.686; -177.5; -8.6; 152.4; 31.4; 279.86; 21.56; 23.1; 12; 2025-05-13; 10:19:23; 51.935349; 4.197608; 54.030743; -45.162239; 44.6; 0.00; 1101.00; 1099.00; 642.00; 1087.00; 1600.00; 1599.00; 599.00; 599.00; 0.00; 0.00; 
336957; 100820; 41.31; 28.1; 2.950; 1.772; 13.320; -0.876; -0.014; 0.003; 11.320; 10.648; 0.686; -177.2; -8.7; 151.6; 31.4; 254.61; 20.57; 23.1; 12; 2025-05-13; 10:19:23; 51.935349; 4.197608; 54.030743; -45.162239; 44.6; 0.00; 1099.00; 1100.00; 645.00; 1083.00; 1599.00; 1599.00; 599.00; 599.00; 0.00; 0.00; 
337057; 100814; 41.84; 28.1; 3.874; 8.581; 17.745; -1.263; 0.016; 0.010; 11.320; 10.648; 0.686; -176.1; -8.7; 150.7; 31.3; 257.77; 20.69; 23.1; 12; 2025-05-13; 10:19:23; 51.935349; 4.197608; 54.030743; -45.162239; 44.6; 0.00; 1099.00; 1099.00; 645.00; 1084.00; 1600.00; 1599.00; 599.00; 599.00; 0.00; 0.00; 
337157; 100816; 41.66; 28.1; 0.474; 4.693; 19.995; -1.507; -0.060; -0.036; 11.320; 10.648; 0.686; -175.6; -8.3; 149.9; 31.4; 248.30; 20.31; 23.1; 12; 2025-05-13; 10:19:24; 51.935326; 4.197837; 69.770569; -47.704094; 44.6; 0.00; 1099.00; 1099.00; 643.00; 1085.00; 1597.00; 1627.00; 600.00; 600.00; 0.00; 0.00; 
337257; 100802; 42.81; 28.1; 0.426; -0.747; 10.284; 0.482; -0.151; 0.086; 11.320; 10.648; 0.686; -175.9; -7.9; 149.3; 31.4; 276.71; 21.44; 23.1; 12; 2025-05-13; 10:19:24; 51.935326; 4.197837; 69.770569; -47.704094; 51.9; 0.00; 1099.00; 1099.00; 646.00; 1087.00; 1598.00; 1599.00; 599.00; 599.00; 0.00; 0.00; 
337357; 100799; 43.11; 28.1; 2.619; -9.826; 6.429; 0.256; -0.162; 0.028; 10.967; 9.938; -0.343; -178.3; -8.3; 149.0; 31.4; 268.29; 21.11; 23.1; 12; 2025-05-13; 10:19:24; 51.935326; 4.197837; 69.770569; -47.704094; 51.9; 0.00; 1099.00; 1100.00; 644.00; 1080.00; 1601.00; 1599.00; 599.00; 599.00; 0.00; 0.00; 
337457; 100786; 44.12; 28.1; 2.792; 0.254; 7.741; 0.012; 0.004; 0.063; 10.967; 9.938; -0.343; -178.2; -8.9; 148.5; 31.4; 259.87; 20.78; 23.1; 12; 2025-05-13; 10:19:24; 51.935326; 4.197837; 69.770569; -47.704094; 51.9; 0.00; 1099.00; 1099.00; 646.00; 1082.00; 1600.00; 1599.00; 599.00; 593.00; 0.00; 0.00; 
337557; 100779; 45.39; 28.1; 1.484; -1.221; 11.189; 0.314; -0.067; 0.149; 10.967; 9.938; -0.343; -178.6; -8.8; 148.0; 31.3; 257.77; 20.69; 23.1; 12; 2025-05-13; 10:19:24; 51.935326; 4.197837; 69.770569; -47.704094; 51.9; 0.00; 1099.00; 1099.00; 643.00; 1080.00; 1610.00; 1599.00; 599.00; 600.00; 0.00; 0.00; 
